Folder: _LabMateriaisEM740--Unicamp/Experimento 4/Resultados Experimento 4-20210423/arquivos txt (part 3)

File: Polimero_Amarelo-50mm_min.txt
0
Diameter:	   3.00
   6.00
Area:	  18.0000
Gauge:	  25.00
2009-1-20
Polimero
amostra 20mm/min
DataNumber:	3772
Order	Load(kN)	Defor(mm)	Stroke(mm)	Time(s)
    0	  0.0000	  0.0000	   0.000	   0.000
   16	  0.2600	  0.7713	   0.771	   0.955
   32	  0.4000	  1.5725	   1.572	   1.915
   48	  0.4400	  2.3737	   2.374	   2.875
   64	  0.4600	  3.1762	   3.176	   3.835
   80	  0.4400	  3.9800	   3.980	   4.795
   96	  0.4200	  4.7850	   4.785	   5.755
  112	  0.4000	  5.5900	   5.590	   6.715
  128	  0.4000	  6.3925	   6.392	   7.675
  144	  0.3800	  7.1937	   7.194	   8.635
  160	  0.3600	  7.9950	   7.995	   9.595
  176	  0.3400	  8.7987	   8.799	  10.555
  192	  0.3200	  9.6025	   9.602	  11.515
  208	  0.3000	 10.4037	  10.404	  12.475
  224	  0.2800	 11.2050	  11.205	  13.435
  240	  0.2400	 12.0075	  12.007	  14.395
  256	  0.2200	 12.8100	  12.810	  15.355
  272	  0.2200	 13.6137	  13.614	  16.315
  288	  0.2200	 14.4175	  14.417	  17.275
  304	  0.2200	 15.2200	  15.220	  18.235
  320	  0.2200	 16.0187	  16.019	  19.195
  336	  0.2200	 16.8225	  16.823	  20.155
  352	  0.2200	 17.6262	  17.626	  21.115
  368	  0.2200	 18.4275	  18.427	  22.075
  384	  0.2200	 19.2288	  19.229	  23.035
  400	  0.2200	 20.0300	  20.030	  23.995
  416	  0.2200	 20.8325	  20.833	  24.955
  432	  0.2200	 21.6362	  21.636	  25.915
  448	  0.2200	 22.4387	  22.439	  26.875
  464	  0.2200	 23.2400	  23.240	  27.835
  480	  0.2200	 24.0437	  24.044	  28.795
  496	  0.2200	 24.8475	  24.847	  29.755
  512	  0.2200	 25.6500	  25.650	  30.715
  528	  0.2200	 26.4537	  26.454	  31.675
  544	  0.2200	 27.2537	  27.254	  32.635
  560	  0.2200	 28.0550	  28.055	  33.595
  576	  0.2200	 28.8575	  28.858	  34.555
  592	  0.2200	 29.6600	  29.660	  35.515
  608	  0.2200	 30.4625	  30.462	  36.475
  624	  0.2200	 31.2638	  31.264	  37.435
  640	  0.2200	 32.0662	  32.066	  38.395
  656	  0.2200	 32.8687	  32.869	  39.355
  672	  0.2200	 33.6725	  33.673	  40.315
  688	  0.2200	 34.4750	  34.475	  41.275
  704	  0.2200	 35.2775	  35.278	  42.235
  720	  0.2200	 36.0788	  36.079	  43.195
  736	  0.2200	 36.8800	  36.880	  44.155
  752	  0.2200	 37.6825	  37.682	  45.115
  768	  0.2200	 38.4850	  38.485	  46.075
  784	  0.2200	 39.2875	  39.287	  47.035
  800	  0.2200	 40.0887	  40.089	  47.995
  816	  0.2200	 40.8900	  40.890	  48.955
  832	  0.2200	 41.6937	  41.694	  49.915
  848	  0.2200	 42.4963	  42.496	  50.875
  864	  0.2200	 43.3000	  43.300	  51.835
  880	  0.2200	 44.1025	  44.103	  52.795
  896	  0.2200	 44.9062	  44.906	  53.755
  912	  0.2200	 45.7087	  45.709	  54.715
  928	  0.2200	 46.5112	  46.511	  55.675
  944	  0.2200	 47.3137	  47.314	  56.635
  960	  0.2200	 48.1162	  48.116	  57.595
  976	  0.2200	 48.9175	  48.917	  58.555
  992	  0.2200	 49.7162	  49.716	  59.515
 1008	  0.2200	 50.5187	  50.519	  60.475
 1024	  0.2200	 51.3212	  51.321	  61.435
 1040	  0.2200	 52.1237	  52.124	  62.395
 1056	  0.2200	 52.9263	  52.926	  63.355
 1072	  0.2200	 53.7287	  53.729	  64.315
 1088	  0.2200	 54.5325	  54.532	  65.275
 1104	  0.2200	 55.3363	  55.336	  66.235
 1120	  0.2200	 56.1387	  56.139	  67.195
 1136	  0.2200	 56.9400	  56.940	  68.155
 1152	  0.2200	 57.7412	  57.741	  69.115
 1168	  0.2200	 58.5437	  58.544	  70.075
 1184	  0.2200	 59.3450	  59.345	  71.035
 1200	  0.2200	 60.1475	  60.147	  71.995
 1216	  0.2200	 60.9487	  60.949	  72.955
 1232	  0.2200	 61.7512	  61.751	  73.915
 1248	  0.2200	 62.5537	  62.554	  74.875
 1264	  0.2200	 63.3575	  63.357	  75.835
 1280	  0.2200	 64.1600	  64.160	  76.795
 1296	  0.2200	 64.9637	  64.964	  77.755
 1312	  0.2200	 65.7637	  65.764	  78.715
 1328	  0.2200	 66.5675	  66.567	  79.675
 1344	  0.2200	 67.3700	  67.370	  80.635
 1360	  0.2400	 68.1712	  68.171	  81.595
 1376	  0.2200	 68.9725	  68.972	  82.555
 1392	  0.2400	 69.7750	  69.775	  83.515
 1408	  0.2400	 70.5775	  70.577	  84.475
 1424	  0.2400	 71.3800	  71.380	  85.435
 1440	  0.2400	 72.1825	  72.182	  86.395
 1456	  0.2400	 72.9837	  72.984	  87.355
 1472	  0.2400	 73.7862	  73.786	  88.315
 1488	  0.2400	 74.5887	  74.589	  89.275
 1504	  0.2400	 75.3925	  75.393	  90.235
 1520	  0.2400	 76.1950	  76.195	  91.195
 1536	  0.2400	 76.9962	  76.996	  92.155
 1552	  0.2400	 77.7988	  77.799	  93.115
 1568	  0.2400	 78.6000	  78.600	  94.075
 1584	  0.2400	 79.4025	  79.402	  95.035
 1600	  0.2400	 80.2012	  80.201	  95.995
 1616	  0.2400	 81.0025	  81.002	  96.955
 1632	  0.2400	 81.8050	  81.805	  97.915
 1648	  0.2400	 82.6087	  82.609	  98.875
 1664	  0.2400	 83.4137	  83.414	  99.835
 1680	  0.2400	 84.2175	  84.217	 100.795
 1696	  0.2400	 85.0200	  85.020	 101.755
 1712	  0.2400	 85.8225	  85.822	 102.715
 1728	  0.2400	 86.6237	  86.624	 103.675
 1744	  0.2400	 87.4262	  87.426	 104.635
 1760	  0.2400	 88.2287	  88.229	 105.595
 1776	  0.2400	 89.0300	  89.030	 106.555
 1792	  0.2400	 89.8325	  89.832	 107.515
 1808	  0.2400	 90.6350	  90.635	 108.475
 1824	  0.2400	 91.4375	  91.438	 109.435
 1840	  0.2400	 92.2400	  92.240	 110.395
 1856	  0.2400	 93.0425	  93.042	 111.355
 1872	  0.2400	 93.8450	  93.845	 112.315
 1888	  0.2400	 94.6488	  94.649	 113.275
 1904	  0.2400	 95.4512	  95.451	 114.235
 1920	  0.2400	 96.2537	  96.254	 115.195
 1936	  0.2400	 97.0550	  97.055	 116.155
 1952	  0.2400	 97.8562	  97.856	 117.115
 1968	  0.2400	 98.6587	  98.659	 118.075
 1984	  0.2400	 99.4600	  99.460	 119.035
 2000	  0.2400	100.2625	 100.262	 119.995
 2016	  0.2400	101.0650	 101.065	 120.955
 2032	  0.2400	101.8662	 101.866	 121.915
 2048	  0.2400	102.6687	 102.669	 122.875
 2064	  0.2400	103.4725	 103.472	 123.835
 2080	  0.2400	104.2762	 104.276	 124.795
 2096	  0.2400	105.0800	 105.080	 125.755
 2112	  0.2400	105.8812	 105.881	 126.715
 2128	  0.2400	106.6812	 106.681	 127.675
 2144	  0.2400	107.4850	 107.485	 128.635
 2160	  0.2400	108.2875	 108.287	 129.595
 2176	  0.2400	109.0912	 109.091	 130.555
 2192	  0.2400	109.8913	 109.891	 131.515
 2208	  0.2400	110.6912	 110.691	 132.475
 2224	  0.2400	111.4937	 111.494	 133.435
 2240	  0.2400	112.2962	 112.296	 134.395
 2256	  0.2400	113.1012	 113.101	 135.355
 2272	  0.2400	113.9037	 113.904	 136.315
 2288	  0.2400	114.7050	 114.705	 137.275
 2304	  0.2400	115.5088	 115.509	 138.235
 2320	  0.2400	116.3112	 116.311	 139.195
 2336	  0.2400	117.1125	 117.112	 140.155
 2352	  0.2400	117.9150	 117.915	 141.115
 2368	  0.2400	118.7162	 118.716	 142.075
 2384	  0.2400	119.5175	 119.517	 143.035
 2400	  0.2400	120.3200	 120.320	 143.995
 2416	  0.2400	121.1237	 121.124	 144.955
 2432	  0.2400	121.9275	 121.927	 145.915
 2448	  0.2400	122.7300	 122.730	 146.875
 2464	  0.2400	123.5325	 123.532	 147.835
 2480	  0.2400	124.3363	 124.336	 148.795
 2496	  0.2400	125.1413	 125.141	 149.755
 2512	  0.2400	125.9425	 125.942	 150.715
 2528	  0.2400	126.7450	 126.745	 151.675
 2544	  0.2400	127.5450	 127.545	 152.635
 2560	  0.2400	128.3475	 128.348	 153.595
 2576	  0.2400	129.1500	 129.150	 154.555
 2592	  0.2400	129.9525	 129.952	 155.515
 2608	  0.2400	130.7550	 130.755	 156.475
 2624	  0.2400	131.5550	 131.555	 157.435
 2640	  0.2400	132.3587	 132.359	 158.395
 2656	  0.2400	133.1625	 133.162	 159.355
 2672	  0.2600	133.9662	 133.966	 160.315
 2688	  0.2400	134.7688	 134.769	 161.275
 2704	  0.2400	135.5675	 135.567	 162.235
 2720	  0.2400	136.3712	 136.371	 163.195
 2736	  0.2400	137.1750	 137.175	 164.155
 2752	  0.2600	137.9762	 137.976	 165.115
 2768	  0.2400	138.7800	 138.780	 166.075
 2784	  0.2400	139.5800	 139.580	 167.035
 2800	  0.2600	140.3812	 140.381	 167.995
 2816	  0.2600	141.1837	 141.184	 168.955
 2832	  0.2600	141.9875	 141.988	 169.915
 2848	  0.2600	142.7912	 142.791	 170.875
 2864	  0.2600	143.5925	 143.592	 171.835
 2880	  0.2600	144.3950	 144.395	 172.795
 2896	  0.2600	145.1975	 145.197	 173.755
 2912	  0.2600	146.0013	 146.001	 174.715
 2928	  0.2600	146.8037	 146.804	 175.675
 2944	  0.2600	147.6050	 147.605	 176.635
 2960	  0.2600	148.4050	 148.405	 177.595
 2976	  0.2600	149.2063	 149.206	 178.555
 2992	  0.2600	150.0087	 150.009	 179.515
 3008	  0.2600	150.8112	 150.811	 180.475
 3024	  0.2600	151.6137	 151.614	 181.435
 3040	  0.2400	152.4088	 152.409	 182.395
 3056	  0.2400	153.2125	 153.212	 183.355
 3072	  0.2400	154.0175	 154.018	 184.315
 3088	  0.2400	154.8212	 154.821	 185.275
 3104	  0.2200	155.6237	 155.624	 186.235
 3120	  0.2200	156.4238	 156.424	 187.195
 3136	  0.2200	157.2262	 157.226	 188.155
 3152	  0.1800	158.0287	 158.029	 189.115
 3168	  0.1800	158.8337	 158.834	 190.075
 3184	  0.1600	159.6350	 159.635	 191.035
 3200	  0.1600	160.4362	 160.436	 191.995
 3216	  0.1400	161.2387	 161.239	 192.955
 3232	  0.1400	162.0425	 162.042	 193.915
 3248	  0.1200	162.8463	 162.846	 194.875
 3264	  0.1200	163.6500	 163.650	 195.835
 3280	  0.1000	164.4512	 164.451	 196.795
 3296	  0.1000	165.2525	 165.253	 197.755
 3312	  0.1000	166.0562	 166.056	 198.715
 3328	  0.1000	166.8587	 166.859	 199.675
 3344	  0.1000	167.6612	 167.661	 200.635
 3360	  0.0800	168.4625	 168.462	 201.595
 3376	  0.0800	169.2637	 169.264	 202.555
 3392	  0.0800	170.0650	 170.065	 203.515
 3408	  0.0800	170.8687	 170.869	 204.475
 3424	  0.0800	171.6725	 171.673	 205.435
 3440	  0.0800	172.4688	 172.469	 206.395
 3456	  0.0800	173.2700	 173.270	 207.355
 3472	  0.0800	174.0737	 174.074	 208.315
 3488	  0.0800	174.8763	 174.876	 209.275
 3504	  0.0800	175.6812	 175.681	 210.235
 3520	  0.0600	176.4825	 176.482	 211.195
 3536	  0.0600	177.2825	 177.283	 212.155
 3552	  0.0600	178.0837	 178.084	 213.115
 3568	  0.0600	178.8875	 178.887	 214.075
 3584	  0.0600	179.6900	 179.690	 215.035
 3600	  0.0600	180.4925	 180.492	 215.995
 3616	  0.0600	181.2937	 181.294	 216.955
 3632	  0.0400	182.0963	 182.096	 217.915
 3648	  0.0600	182.8987	 182.899	 218.875
 3664	  0.0400	183.7025	 183.702	 219.835
 3680	  0.0600	184.5062	 184.506	 220.795
 3696	  0.0600	185.3087	 185.309	 221.755
 3712	  0.0600	186.1100	 186.110	 222.715
 3728	  0.0600	186.9100	 186.910	 223.675
 3744	  0.0600	187.7125	 187.712	 224.635
 3760	  0.0600	188.5150	 188.515	 225.595
2009-1-20
Polimero
amostra 20mm/min
25
18.00
1
3
???
???
???
???
25.56
???
???
???
???
???
0.46
???
1
6
6

File: PolimeroAmarelo100mm_min.txt
0
Diameter:	   5.00
   1.00
Area:	  19.6350
GaugeLength:	  50.00
2018-10-8
Polimero100
Polimero100
DataNumber:	120
index	Load(kN)	Defor(mm)	Stroke(mm)	Time(s)
    0	  0.0000	  0.0000	   0.000	   0.000
    1	  0.0200	  0.7080	   0.052	   0.055
    2	  0.0400	  0.6940	   0.149	   0.115
    3	  0.0400	  0.7000	   0.249	   0.175
    4	  0.0600	  0.7040	   0.347	   0.235
    5	  0.0600	  0.7060	   0.449	   0.295
    6	  0.0400	  0.7060	   0.548	   0.355
    7	  0.0400	  0.7060	   0.647	   0.415
    8	  0.0400	  0.7060	   0.749	   0.475
    9	  0.0400	  0.7060	   0.847	   0.535
   10	  0.0600	  0.7060	   0.949	   0.595
   11	  0.1200	  0.7060	   1.048	   0.655
   12	  0.1600	  0.7060	   1.149	   0.715
   13	  0.2000	  0.7060	   1.247	   0.775
   14	  0.2600	  0.7040	   1.349	   0.835
   15	  0.3000	  0.7040	   1.449	   0.895
   16	  0.3200	  0.7060	   1.549	   0.955
   17	  0.3600	  0.7040	   1.650	   1.015
   18	  0.3800	  0.7060	   1.749	   1.075
   19	  0.4200	  0.7060	   1.850	   1.135
   20	  0.4400	  0.7040	   1.950	   1.195
   21	  0.4600	  0.7040	   2.051	   1.255
   22	  0.4800	  0.7040	   2.151	   1.315
   23	  0.5000	  0.7040	   2.250	   1.375
   24	  0.5200	  0.7040	   2.351	   1.435
   25	  0.5200	  0.7040	   2.451	   1.495
   26	  0.5400	  0.7040	   2.553	   1.555
   27	  0.5600	  0.7040	   2.652	   1.615
   28	  0.5800	  0.7040	   2.754	   1.675
   29	  0.6000	  0.7040	   2.854	   1.735
   30	  0.6000	  0.7040	   2.955	   1.795
   31	  0.6000	  0.7040	   3.055	   1.855
   32	  0.6200	  0.7040	   3.154	   1.915
   33	  0.6200	  0.7040	   3.255	   1.975
   34	  0.6200	  0.7040	   3.355	   2.035
   35	  0.6200	  0.7040	   3.456	   2.095
   36	  0.6200	  0.7040	   3.556	   2.155
   37	  0.6200	  0.7040	   3.656	   2.215
   38	  0.6000	  0.7020	   3.756	   2.275
   39	  0.6000	  0.7020	   3.857	   2.335
   40	  0.6000	  0.7020	   3.957	   2.395
   41	  0.5800	  0.7020	   4.057	   2.455
   42	  0.5800	  0.7020	   4.159	   2.515
   43	  0.5800	  0.7020	   4.259	   2.575
   44	  0.5800	  0.7020	   4.360	   2.635
   45	  0.5600	  0.7020	   4.457	   2.695
   46	  0.5600	  0.7000	   4.559	   2.755
   47	  0.5600	  0.7000	   4.659	   2.815
   48	  0.5600	  0.7000	   4.757	   2.875
   49	  0.5400	  0.7000	   4.859	   2.935
   50	  0.5400	  0.7000	   4.959	   2.995
   51	  0.5400	  0.7000	   5.060	   3.055
   52	  0.5400	  0.7000	   5.160	   3.115
   53	  0.5400	  0.7020	   5.260	   3.175
   54	  0.5400	  0.7000	   5.359	   3.235
   55	  0.5200	  0.7000	   5.460	   3.295
   56	  0.5200	  0.7000	   5.559	   3.355
   57	  0.5200	  0.7000	   5.659	   3.415
   58	  0.5200	  0.7000	   5.760	   3.475
   59	  0.5200	  0.7000	   5.860	   3.535
   60	  0.5200	  0.7000	   5.961	   3.595
   61	  0.5200	  0.7000	   6.061	   3.655
   62	  0.5000	  0.7000	   6.160	   3.715
   63	  0.5000	  0.7000	   6.260	   3.775
   64	  0.5000	  0.7000	   6.361	   3.835
   65	  0.5000	  0.7000	   6.461	   3.895
   66	  0.5000	  0.7000	   6.560	   3.955
   67	  0.5000	  0.7000	   6.662	   4.015
   68	  0.4800	  0.7000	   6.762	   4.075
   69	  0.4800	  0.7000	   6.864	   4.135
   70	  0.4800	  0.7000	   6.961	   4.195
   71	  0.4600	  0.7000	   7.064	   4.255
   72	  0.4600	  0.7000	   7.162	   4.315
   73	  0.4200	  0.7000	   7.262	   4.375
   74	  0.0600	  0.6960	   7.365	   4.435
   75	  0.0600	  0.6980	   7.464	   4.495
   76	  0.0600	  0.6980	   7.566	   4.555
   77	  0.0600	  0.6980	   7.666	   4.615
   78	  0.0600	  0.6980	   7.767	   4.675
   79	  0.0600	  0.6980	   7.866	   4.735
   80	  0.0600	  0.6980	   7.967	   4.795
   81	  0.0600	  0.6980	   8.068	   4.855
   82	  0.0600	  0.6980	   8.167	   4.915
   83	  0.0600	  0.6980	   8.269	   4.975
   84	  0.0600	  0.6980	   8.367	   5.035
   85	  0.0600	  0.6980	   8.469	   5.095
   86	  0.0600	  0.6980	   8.569	   5.155
   87	  0.0600	  0.6980	   8.670	   5.215
   88	  0.0600	  0.6980	   8.769	   5.275
   89	  0.0600	  0.7000	   8.870	   5.335
   90	  0.0600	  0.6980	   8.970	   5.395
   91	  0.0600	  0.6980	   9.069	   5.455
   92	  0.0600	  0.6980	   9.170	   5.515
   93	  0.0600	  0.7000	   9.270	   5.575
   94	  0.0600	  0.7000	   9.371	   5.635
   95	  0.0600	  0.7000	   9.470	   5.695
   96	  0.0600	  0.6980	   9.571	   5.755
   97	  0.0600	  0.6980	   9.671	   5.815
   98	  0.0600	  0.6980	   9.770	   5.875
   99	  0.0600	  0.6980	   9.872	   5.935
  100	  0.0600	  0.6980	   9.971	   5.995
  101	  0.0600	  0.6980	  10.073	   6.055
  102	  0.0600	  0.6980	  10.172	   6.115
  103	  0.0600	  0.6980	  10.274	   6.175
  104	  0.0600	  0.6980	  10.374	   6.235
  105	  0.0600	  0.6980	  10.475	   6.295
  106	  0.0600	  0.6980	  10.574	   6.355
  107	  0.0600	  0.6980	  10.674	   6.415
  108	  0.0600	  0.6980	  10.775	   6.475
  109	  0.0600	  0.6980	  10.875	   6.535
  110	  0.0600	  0.6980	  10.976	   6.595
  111	  0.0600	  0.6980	  11.076	   6.655
  112	  0.0600	  0.6980	  11.177	   6.715
  113	  0.0600	  0.6980	  11.278	   6.775
  114	  0.0600	  0.6980	  11.379	   6.835
  115	  0.0600	  0.6980	  11.479	   6.895
  116	  0.0600	  0.6980	  11.579	   6.955
  117	  0.0600	  0.6980	  11.680	   7.015
  118	  0.0600	  0.6980	  11.780	   7.075
  119	  0.0600	  0.7000	  11.881	   7.135
ControlMode:	0
Rate:	100.0000
(null)
4
step	1
0
5.000000
0.000000
1
1
0.500000
2
step	2
1
5.000000
0.000000
1
1
2.000000
3
step	3
5
2.000000
0.000000
1
0
30
4
step	4
8
0.000000
0.000000
0
0
0.000000
0
2