Folder: _LabMateriaisEM740--Unicamp/Experimento 4/Resultados Experimento 4-20210423/arquivos txt (part 2)

File: AçoRevenido.txt
0
Diameter:	   7.90
   1.00
Area:	  49.0167
GaugeLength:	  50.00
2009-1-1
ACO REVENIDO
GRUPO3 ACO REVENIDO
DataNumber:	2647
index	Load(kN)	Defor(mm)	Stroke(mm)	Time(s)
    0	  0.0000	  0.0000	   0.000	   0.000
   12	  0.0600	  0.5140	   0.050	   0.715
   24	  0.0600	  0.5140	   0.109	   1.435
   36	  0.0600	  0.5140	   0.169	   2.155
   48	  0.0600	  0.5160	   0.229	   2.875
   60	  0.0600	  0.5160	   0.289	   3.595
   72	  0.0600	  0.5160	   0.349	   4.315
   84	  0.0600	  0.5160	   0.407	   5.035
   96	  0.0800	  0.5160	   0.468	   5.755
  108	  0.0800	  0.5160	   0.527	   6.475
  120	  0.2800	  0.5160	   0.587	   7.195
  132	  0.8200	  0.5140	   0.647	   7.915
  144	  1.6200	  0.5140	   0.707	   8.635
  156	  2.5200	  0.5160	   0.766	   9.355
  168	  2.8000	  0.5160	   0.826	  10.075
  180	  3.3400	  0.5160	   0.886	  10.795
  192	  3.6200	  0.5180	   0.946	  11.515
  204	  3.9400	  0.5200	   1.006	  12.235
  216	  4.4200	  0.5220	   1.066	  12.955
  228	  4.9600	  0.5240	   1.126	  13.675
  240	  5.5400	  0.5260	   1.185	  14.395
  252	  6.1200	  0.5300	   1.245	  15.115
  264	  6.7000	  0.5340	   1.305	  15.835
  276	  7.3000	  0.5360	   1.365	  16.555
  288	  7.8800	  0.5400	   1.425	  17.275
  300	  8.4800	  0.5420	   1.485	  17.995
  312	  9.1000	  0.5460	   1.545	  18.715
  324	  9.7000	  0.5480	   1.605	  19.435
  336	 10.3000	  0.5520	   1.665	  20.155
  348	 10.9200	  0.5540	   1.725	  20.875
  360	 11.5200	  0.5580	   1.785	  21.595
  372	 12.1400	  0.5620	   1.845	  22.315
  384	 12.7800	  0.5660	   1.905	  23.035
  396	 13.4200	  0.5680	   1.965	  23.755
  408	 14.0600	  0.5700	   2.025	  24.475
  420	 14.7000	  0.5740	   2.085	  25.195
  432	 15.3400	  0.5780	   2.145	  25.915
  444	 16.0000	  0.5820	   2.205	  26.635
  456	 16.6400	  0.5860	   2.263	  27.355
  468	 17.3200	  0.5880	   2.322	  28.075
  480	 17.9800	  0.5920	   2.382	  28.795
  492	 18.6600	  0.5960	   2.442	  29.515
  504	 19.3400	  0.5980	   2.501	  30.235
  516	 20.0400	  0.6020	   2.561	  30.955
  528	 20.7200	  0.6060	   2.621	  31.675
  540	 21.4200	  0.6100	   2.681	  32.395
  552	 22.1200	  0.6140	   2.741	  33.115
  564	 22.8200	  0.6160	   2.801	  33.835
  576	 23.5400	  0.6200	   2.861	  34.555
  588	 24.2400	  0.6240	   2.921	  35.275
  600	 24.9600	  0.6280	   2.981	  35.995
  612	 25.6600	  0.6320	   3.041	  36.715
  624	 26.3800	  0.6360	   3.101	  37.435
  636	 27.1000	  0.6400	   3.160	  38.155
  648	 27.8400	  0.6440	   3.220	  38.875
  660	 28.5600	  0.6480	   3.280	  39.595
  672	 29.2800	  0.6500	   3.340	  40.315
  684	 30.0200	  0.6540	   3.400	  41.035
  696	 30.7400	  0.6580	   3.459	  41.755
  708	 31.4800	  0.6620	   3.519	  42.475
  720	 32.2000	  0.6660	   3.576	  43.195
  732	 32.9400	  0.6700	   3.636	  43.915
  744	 33.6800	  0.6740	   3.696	  44.635
  756	 34.4400	  0.6780	   3.756	  45.355
  768	 35.1800	  0.6820	   3.816	  46.075
  780	 35.9200	  0.6860	   3.876	  46.795
  792	 36.6800	  0.6900	   3.936	  47.515
  804	 37.4200	  0.6940	   3.996	  48.235
  816	 38.1800	  0.6980	   4.055	  48.955
  828	 38.9400	  0.7020	   4.115	  49.675
  840	 39.7000	  0.7060	   4.175	  50.395
  852	 40.4400	  0.7100	   4.235	  51.115
  864	 41.2200	  0.7140	   4.295	  51.835
  876	 41.9800	  0.7180	   4.355	  52.555
  888	 42.7400	  0.7220	   4.415	  53.275
  900	 43.5000	  0.7260	   4.475	  53.995
  912	 44.2600	  0.7300	   4.534	  54.715
  924	 45.0200	  0.7360	   4.595	  55.435
  936	 45.7800	  0.7400	   4.654	  56.155
  948	 46.5400	  0.7440	   4.714	  56.875
  960	 47.0000	  0.7460	   4.774	  57.595
  972	 47.7600	  0.7540	   4.834	  58.315
  984	 48.4400	  0.7600	   4.894	  59.035
  996	 49.0400	  0.7720	   4.954	  59.755
 1008	 49.3400	  0.7960	   5.014	  60.475
 1020	 49.1600	  0.8460	   5.074	  61.195
 1032	 49.1400	  0.9000	   5.135	  61.915
 1044	 49.1400	  0.9540	   5.195	  62.635
 1056	 49.2000	  1.0080	   5.255	  63.355
 1068	 49.3400	  1.0600	   5.315	  64.075
 1080	 49.4600	  1.1100	   5.375	  64.795
 1092	 49.5600	  1.1600	   5.436	  65.515
 1104	 49.6800	  1.2112	   5.496	  66.235
 1116	 49.7800	  1.2712	   5.556	  66.955
 1128	 49.8800	  1.3312	   5.616	  67.675
 1140	 49.9800	  1.3912	   5.676	  68.395
 1152	 49.4800	  1.4087	   5.694	  69.115
 1164	 49.2400	  1.4087	   5.694	  69.835
 1176	 49.1200	  1.4099	   5.695	  70.555
 1188	 49.0200	  1.4099	   5.695	  71.275
 1200	 48.9600	  1.4099	   5.695	  71.995
 1212	 48.9000	  1.4099	   5.695	  72.715
 1224	 48.8600	  1.4099	   5.695	  73.435
 1236	 48.8200	  1.4099	   5.695	  74.155
 1248	 48.8000	  1.4099	   5.695	  74.875
 1260	 48.7600	  1.4099	   5.695	  75.595
 1272	 48.7200	  1.4099	   5.695	  76.315
 1284	 48.7000	  1.4099	   5.695	  77.035
 1296	 48.6800	  1.4099	   5.695	  77.755
 1308	 48.6600	  1.4099	   5.695	  78.475
 1320	 48.6400	  1.4099	   5.695	  79.195
 1332	 48.6200	  1.4099	   5.695	  79.915
 1344	 48.8200	  1.4174	   5.702	  80.635
 1356	 50.1600	  1.4774	   5.762	  81.355
 1368	 50.3000	  1.5374	   5.822	  82.075
 1380	 50.3800	  1.5974	   5.882	  82.795
 1392	 50.4600	  1.6587	   5.944	  83.515
 1404	 50.5200	  1.7187	   6.004	  84.235
 1416	 50.6000	  1.7799	   6.065	  84.955
 1428	 50.6800	  1.8399	   6.125	  85.675
 1440	 50.7800	  1.8987	   6.184	  86.395
 1452	 50.8800	  1.9599	   6.245	  87.115
 1464	 50.9600	  2.0199	   6.305	  87.835
 1476	 51.0600	  2.0799	   6.365	  88.555
 1488	 51.1600	  2.1399	   6.425	  89.275
 1500	 51.2400	  2.1999	   6.485	  89.995
 1512	 51.3400	  2.2612	   6.546	  90.715
 1524	 51.4400	  2.3212	   6.606	  91.435
 1536	 51.5200	  2.3812	   6.666	  92.155
 1548	 51.6000	  2.4412	   6.726	  92.875
 1560	 51.6800	  2.5024	   6.787	  93.595
 1572	 51.7600	  2.5624	   6.847	  94.315
 1584	 51.8400	  2.6224	   6.907	  95.035
 1596	 51.9200	  2.6824	   6.967	  95.755
 1608	 51.9800	  2.7424	   7.027	  96.475
 1620	 52.0600	  2.8024	   7.087	  97.195
 1632	 52.1200	  2.8624	   7.148	  97.915
 1644	 52.2000	  2.9224	   7.207	  98.635
 1656	 52.2400	  2.9824	   7.267	  99.355
 1668	 52.3000	  3.0437	   7.329	 100.075
 1680	 52.3600	  3.1024	   7.387	 100.795
 1692	 52.4200	  3.1624	   7.447	 101.515
 1704	 52.4600	  3.2237	   7.509	 102.235
 1716	 52.5000	  3.2837	   7.569	 102.955
 1728	 52.5400	  3.3437	   7.629	 103.675
 1740	 52.5800	  3.4037	   7.689	 104.395
 1752	 52.6200	  3.4637	   7.749	 105.115
 1764	 52.6600	  3.5237	   7.809	 105.835
 1776	 52.6800	  3.5849	   7.870	 106.555
 1788	 52.7000	  3.6449	   7.930	 107.275
 1800	 52.7200	  3.7049	   7.990	 107.995
 1812	 52.7400	  3.7649	   8.050	 108.715
 1824	 52.7600	  3.8249	   8.110	 109.435
 1836	 52.7600	  3.8849	   8.170	 110.155
 1848	 52.7600	  3.9449	   8.230	 110.875
 1860	 52.7800	  4.0049	   8.290	 111.595
 1872	 52.7600	  4.0649	   8.350	 112.315
 1884	 52.7600	  4.1262	   8.411	 113.035
 1896	 52.7600	  4.1862	   8.471	 113.755
 1908	 52.7400	  4.2462	   8.531	 114.475
 1920	 52.7200	  4.3062	   8.591	 115.195
 1932	 52.7000	  4.3662	   8.651	 115.915
 1944	 52.6600	  4.4262	   8.711	 116.635
 1956	 52.6000	  4.4874	   8.773	 117.355
 1968	 52.5400	  4.5474	   8.832	 118.075
 1980	 52.4600	  4.6074	   8.892	 118.795
 1992	 52.3600	  4.6674	   8.952	 119.515
 2004	 52.2600	  4.7274	   9.012	 120.235
 2016	 52.1200	  4.7887	   9.074	 120.955
 2028	 51.9200	  4.8499	   9.135	 121.675
 2040	 51.8600	  4.9099	   9.195	 122.395
 2052	 51.6200	  4.9699	   9.255	 123.115
 2064	 51.4000	  5.0299	   9.315	 123.835
 2076	 51.1800	  5.0912	   9.376	 124.555
 2088	 50.9400	  5.1499	   9.435	 125.275
 2100	 50.6800	  5.2112	   9.496	 125.995
 2112	 50.4400	  5.2712	   9.556	 126.715
 2124	 50.1800	  5.3312	   9.616	 127.435
 2136	 49.9200	  5.3912	   9.676	 128.155
 2148	 49.6400	  5.4512	   9.736	 128.875
 2160	 49.3600	  5.5112	   9.796	 129.595
 2172	 49.0800	  5.5724	   9.858	 130.315
 2184	 48.8000	  5.6312	   9.916	 131.035
 2196	 48.5000	  5.6924	   9.977	 131.755
 2208	 48.2000	  5.7524	  10.037	 132.475
 2220	 47.9000	  5.8124	  10.097	 133.195
 2232	 47.6000	  5.8737	  10.159	 133.915
 2244	 47.2800	  5.9337	  10.219	 134.635
 2256	 46.9600	  5.9937	  10.279	 135.355
 2268	 46.6400	  6.0537	  10.339	 136.075
 2280	 46.3000	  6.1137	  10.399	 136.795
 2292	 45.9600	  6.1749	  10.460	 137.515
 2304	 45.6200	  6.2349	  10.520	 138.235
 2316	 45.2800	  6.2949	  10.580	 138.955
 2328	 44.9200	  6.3549	  10.640	 139.675
 2340	 44.5400	  6.4162	  10.701	 140.395
 2352	 44.1800	  6.4762	  10.761	 141.115
 2364	 43.7800	  6.5362	  10.821	 141.835
 2376	 43.4000	  6.5974	  10.882	 142.555
 2388	 43.0000	  6.6574	  10.943	 143.275
 2400	 42.5800	  6.7174	  11.002	 143.995
 2412	 42.1400	  6.7787	  11.064	 144.715
 2424	 41.7200	  6.8387	  11.124	 145.435
 2436	 41.2800	  6.8974	  11.182	 146.155
 2448	 40.8200	  6.9574	  11.242	 146.875
 2460	 40.3400	  7.0174	  11.302	 147.595
 2472	 39.8800	  7.0787	  11.364	 148.315
 2484	 39.3800	  7.1387	  11.424	 149.035
 2496	 38.8800	  7.1987	  11.484	 149.755
 2508	 38.3600	  7.2587	  11.544	 150.475
 2520	 37.8200	  7.3199	  11.605	 151.195
 2532	 37.2600	  7.3799	  11.665	 151.915
 2544	 36.6800	  7.4399	  11.725	 152.635
 2556	 36.1000	  7.5012	  11.786	 153.355
 2568	 35.4800	  7.5612	  11.846	 154.075
 2580	 34.8600	  7.6212	  11.906	 154.795
 2592	 34.2000	  7.6812	  11.966	 155.515
 2604	  0.0200	  7.7412	  12.026	 156.235
 2616	  0.0200	  7.8012	  12.086	 156.955
 2628	  0.0200	  7.8599	  12.145	 157.675
 2640	  0.0000	  7.9199	  12.205	 158.395
 2646	  0.0000	  7.9499	  12.235	 158.755
ControlMode:	0
Rate:	  5.0000
(null)
4
step	1
0
5.000000
0.000000
1
1
0.500000
2
step	2
1
5.000000
0.000000
1
1
2.000000
3
step	3
5
2.000000
0.000000
1
0
30
4
step	4
8
0.000000
0.000000
0
0
0.000000
0
2

File: AçoTemperado.txt
0
Diameter:	   7.85
   1.00
Area:	  48.3982
GaugeLength:	  50.00
2009-1-1
aco temp
001
DataNumber:	1641
index	Load(kN)	Defor(mm)	Stroke(mm)	Time(s)
    0	  0.0000	  0.0000	   0.000	   0.000
    7	  0.0000	  0.0187	   0.019	   0.415
   14	  0.1400	  0.0537	   0.054	   0.835
   21	  0.1600	  0.0887	   0.089	   1.255
   28	  0.1600	  0.1237	   0.124	   1.675
   35	  0.5000	  0.1587	   0.159	   2.095
   42	  0.8800	  0.1937	   0.194	   2.515
   49	  1.0400	  0.2287	   0.229	   2.935
   56	  1.1200	  0.2637	   0.264	   3.355
   63	  1.1600	  0.2987	   0.299	   3.775
   70	  1.2200	  0.3337	   0.334	   4.195
   77	  1.2600	  0.3688	   0.369	   4.615
   84	  1.3000	  0.4025	   0.403	   5.035
   91	  1.3400	  0.4387	   0.439	   5.455
   98	  1.3800	  0.4725	   0.472	   5.875
  105	  1.4200	  0.5075	   0.507	   6.295
  112	  1.4600	  0.5425	   0.542	   6.715
  119	  1.5000	  0.5775	   0.577	   7.135
  126	  1.5200	  0.6125	   0.613	   7.555
  133	  1.5600	  0.6475	   0.647	   7.975
  140	  1.5800	  0.6825	   0.683	   8.395
  147	  1.6200	  0.7175	   0.717	   8.815
  154	  1.6400	  0.7525	   0.752	   9.235
  161	  1.6800	  0.7862	   0.786	   9.655
  168	  1.7200	  0.8212	   0.821	  10.075
  175	  1.7400	  0.8562	   0.856	  10.495
  182	  1.7800	  0.8912	   0.891	  10.915
  189	  1.8200	  0.9262	   0.926	  11.335
  196	  1.8600	  0.9613	   0.961	  11.755
  203	  1.8800	  0.9962	   0.996	  12.175
  210	  1.9400	  1.0312	   1.031	  12.595
  217	  1.9800	  1.0662	   1.066	  13.015
  224	  2.0200	  1.1012	   1.101	  13.435
  231	  2.0800	  1.1363	   1.136	  13.855
  238	  2.1200	  1.1712	   1.171	  14.275
  245	  2.1800	  1.2062	   1.206	  14.695
  252	  2.2200	  1.2412	   1.241	  15.115
  259	  2.2800	  1.2775	   1.277	  15.535
  266	  2.3000	  1.3125	   1.312	  15.955
  273	  2.3600	  1.3475	   1.347	  16.375
  280	  2.4000	  1.3825	   1.382	  16.795
  287	  2.4400	  1.4175	   1.418	  17.215
  294	  2.5000	  1.4525	   1.452	  17.635
  301	  2.5400	  1.4875	   1.487	  18.055
  308	  2.6000	  1.5225	   1.522	  18.475
  315	  2.6400	  1.5575	   1.558	  18.895
  322	  2.7000	  1.5925	   1.592	  19.315
  329	  2.7600	  1.6275	   1.627	  19.735
  336	  2.8000	  1.6625	   1.662	  20.155
  343	  2.8600	  1.6975	   1.697	  20.575
  350	  2.9200	  1.7325	   1.732	  20.995
  357	  2.9800	  1.7675	   1.767	  21.415
  364	  3.0600	  1.8025	   1.803	  21.835
  371	  3.1400	  1.8388	   1.839	  22.255
  378	  3.2400	  1.8737	   1.874	  22.675
  385	  3.3200	  1.9087	   1.909	  23.095
  392	  3.4200	  1.9437	   1.944	  23.515
  399	  3.5200	  1.9787	   1.979	  23.935
  406	  3.6200	  2.0137	   2.014	  24.355
  413	  3.7200	  2.0487	   2.049	  24.775
  420	  3.8400	  2.0838	   2.084	  25.195
  427	  3.9400	  2.1200	   2.120	  25.615
  434	  4.0600	  2.1550	   2.155	  26.035
  441	  4.1800	  2.1900	   2.190	  26.455
  448	  4.3000	  2.2250	   2.225	  26.875
  455	  4.4400	  2.2600	   2.260	  27.295
  462	  4.5600	  2.2950	   2.295	  27.715
  469	  4.7000	  2.3300	   2.330	  28.135
  476	  4.8400	  2.3650	   2.365	  28.555
  483	  5.0000	  2.4000	   2.400	  28.975
  490	  5.1400	  2.4350	   2.435	  29.395
  497	  5.2600	  2.4700	   2.470	  29.815
  504	  5.4200	  2.5050	   2.505	  30.235
  511	  5.5800	  2.5400	   2.540	  30.655
  518	  5.7200	  2.5750	   2.575	  31.075
  525	  5.8800	  2.6100	   2.610	  31.495
  532	  6.0400	  2.6463	   2.646	  31.915
  539	  6.2000	  2.6800	   2.680	  32.335
  546	  6.3600	  2.7162	   2.716	  32.755
  553	  6.5200	  2.7500	   2.750	  33.175
  560	  6.6800	  2.7862	   2.786	  33.595
  567	  6.8600	  2.8200	   2.820	  34.015
  574	  7.0200	  2.8563	   2.856	  34.435
  581	  7.2200	  2.8900	   2.890	  34.855
  588	  7.4000	  2.9262	   2.926	  35.275
  595	  7.5800	  2.9612	   2.961	  35.695
  602	  7.7800	  2.9962	   2.996	  36.115
  609	  7.9800	  3.0312	   3.031	  36.535
  616	  8.1600	  3.0662	   3.066	  36.955
  623	  8.3200	  3.1012	   3.101	  37.375
  630	  8.5600	  3.1363	   3.136	  37.795
  637	  8.7600	  3.1712	   3.171	  38.215
  644	  8.9800	  3.2075	   3.207	  38.635
  651	  9.2200	  3.2425	   3.242	  39.055
  658	  9.4600	  3.2775	   3.277	  39.475
  665	  9.7000	  3.3125	   3.312	  39.895
  672	  9.9400	  3.3475	   3.347	  40.315
  679	 10.1800	  3.3825	   3.382	  40.735
  686	 10.4200	  3.4175	   3.418	  41.155
  693	 10.6600	  3.4525	   3.452	  41.575
  700	 10.8800	  3.4850	   3.485	  41.995
  707	 11.1400	  3.5200	   3.520	  42.415
  714	 11.4000	  3.5550	   3.555	  42.835
  721	 11.6600	  3.5900	   3.590	  43.255
  728	 11.9200	  3.6250	   3.625	  43.675
  735	 12.1800	  3.6600	   3.660	  44.095
  742	 12.4400	  3.6950	   3.695	  44.515
  749	 12.7000	  3.7300	   3.730	  44.935
  756	 12.9600	  3.7650	   3.765	  45.355
  763	 13.2400	  3.8000	   3.800	  45.775
  770	 13.5000	  3.8350	   3.835	  46.195
  777	 13.7800	  3.8700	   3.870	  46.615
  784	 14.0400	  3.9050	   3.905	  47.035
  791	 14.3200	  3.9400	   3.940	  47.455
  798	 14.6000	  3.9750	   3.975	  47.875
  805	 14.8800	  4.0100	   4.010	  48.295
  812	 15.1600	  4.0462	   4.046	  48.715
  819	 15.4200	  4.0800	   4.080	  49.135
  826	 15.7200	  4.1163	   4.116	  49.555
  833	 16.0000	  4.1512	   4.151	  49.975
  840	 16.2800	  4.1862	   4.186	  50.395
  847	 16.5600	  4.2213	   4.221	  50.815
  854	 16.8600	  4.2562	   4.256	  51.235
  861	 17.1400	  4.2912	   4.291	  51.655
  868	 17.4400	  4.3263	   4.326	  52.075
  875	 17.7200	  4.3612	   4.361	  52.495
  882	 18.0200	  4.3962	   4.396	  52.915
  889	 18.3200	  4.4313	   4.431	  53.335
  896	 18.6200	  4.4675	   4.467	  53.755
  903	 18.9000	  4.5025	   4.503	  54.175
  910	 19.2000	  4.5375	   4.537	  54.595
  917	 19.5000	  4.5725	   4.572	  55.015
  924	 19.8000	  4.6075	   4.608	  55.435
  931	 20.1000	  4.6425	   4.642	  55.855
  938	 20.4000	  4.6775	   4.677	  56.275
  945	 20.7000	  4.7125	   4.713	  56.695
  952	 21.0000	  4.7475	   4.747	  57.115
  959	 21.3200	  4.7825	   4.782	  57.535
  966	 21.6200	  4.8175	   4.818	  57.955
  973	 21.9200	  4.8525	   4.852	  58.375
  980	 22.2200	  4.8875	   4.887	  58.795
  987	 22.5400	  4.9225	   4.922	  59.215
  994	 22.8400	  4.9575	   4.957	  59.635
 1001	 23.1600	  4.9925	   4.992	  60.055
 1008	 23.4800	  5.0275	   5.027	  60.475
 1015	 23.7800	  5.0625	   5.062	  60.895
 1022	 24.1000	  5.0975	   5.097	  61.315
 1029	 24.4000	  5.1325	   5.132	  61.735
 1036	 24.7200	  5.1687	   5.169	  62.155
 1043	 25.0400	  5.2037	   5.204	  62.575
 1050	 25.3400	  5.2387	   5.239	  62.995
 1057	 25.6600	  5.2737	   5.274	  63.415
 1064	 25.9800	  5.3087	   5.309	  63.835
 1071	 26.3000	  5.3438	   5.344	  64.255
 1078	 26.6200	  5.3787	   5.379	  64.675
 1085	 26.9400	  5.4137	   5.414	  65.095
 1092	 27.2600	  5.4488	   5.449	  65.515
 1099	 27.5800	  5.4837	   5.484	  65.935
 1106	 27.9000	  5.5187	   5.519	  66.355
 1113	 28.2200	  5.5538	   5.554	  66.775
 1120	 28.5400	  5.5887	   5.589	  67.195
 1127	 28.8600	  5.6237	   5.624	  67.615
 1134	 29.1800	  5.6588	   5.659	  68.035
 1141	 29.5200	  5.6937	   5.694	  68.455
 1148	 29.8400	  5.7287	   5.729	  68.875
 1155	 30.1600	  5.7638	   5.764	  69.295
 1162	 30.4800	  5.7987	   5.799	  69.715
 1169	 30.8000	  5.8337	   5.834	  70.135
 1176	 31.1400	  5.8688	   5.869	  70.555
 1183	 31.4600	  5.9037	   5.904	  70.975
 1190	 31.7800	  5.9387	   5.939	  71.395
 1197	 32.1200	  5.9737	   5.974	  71.815
 1204	 32.4400	  6.0087	   6.009	  72.235
 1211	 32.7800	  6.0437	   6.044	  72.655
 1218	 33.1000	  6.0787	   6.079	  73.075
 1225	 33.4200	  6.1137	   6.114	  73.495
 1232	 33.7600	  6.1487	   6.149	  73.915
 1239	 34.0800	  6.1837	   6.184	  74.335
 1246	 34.4000	  6.2175	   6.217	  74.755
 1253	 34.7400	  6.2525	   6.253	  75.175
 1260	 35.0800	  6.2875	   6.287	  75.595
 1267	 35.4000	  6.3225	   6.322	  76.015
 1274	 35.7200	  6.3575	   6.358	  76.435
 1281	 36.0600	  6.3925	   6.392	  76.855
 1288	 36.3800	  6.4275	   6.427	  77.275
 1295	 36.7000	  6.4625	   6.462	  77.695
 1302	 37.0400	  6.4975	   6.497	  78.115
 1309	 37.3600	  6.5325	   6.532	  78.535
 1316	 37.7000	  6.5675	   6.567	  78.955
 1323	 38.0400	  6.6025	   6.602	  79.375
 1330	 38.3600	  6.6375	   6.637	  79.795
 1337	 38.7000	  6.6725	   6.672	  80.215
 1344	 39.0200	  6.7075	   6.707	  80.635
 1351	 39.3600	  6.7425	   6.742	  81.055
 1358	 39.7000	  6.7775	   6.777	  81.475
 1365	 40.0200	  6.8125	   6.812	  81.895
 1372	 40.3600	  6.8475	   6.847	  82.315
 1379	 40.6800	  6.8825	   6.882	  82.735
 1386	 41.0200	  6.9162	   6.916	  83.155
 1393	 41.3400	  6.9513	   6.951	  83.575
 1400	 41.6800	  6.9862	   6.986	  83.995
 1407	 42.0200	  7.0212	   7.021	  84.415
 1414	 42.3600	  7.0562	   7.056	  84.835
 1421	 42.6800	  7.0912	   7.091	  85.255
 1428	 43.0200	  7.1262	   7.126	  85.675
 1435	 43.3600	  7.1612	   7.161	  86.095
 1442	 43.7000	  7.1962	   7.196	  86.515
 1449	 44.0200	  7.2312	   7.231	  86.935
 1456	 44.3600	  7.2662	   7.266	  87.355
 1463	 44.7000	  7.3012	   7.301	  87.775
 1470	 45.0400	  7.3362	   7.336	  88.195
 1477	 45.3600	  7.3712	   7.371	  88.615
 1484	 45.7000	  7.4062	   7.406	  89.035
 1491	 46.0400	  7.4412	   7.441	  89.455
 1498	 46.3800	  7.4762	   7.476	  89.875
 1505	 46.7000	  7.5113	   7.511	  90.295
 1512	 47.0400	  7.5462	   7.546	  90.715
 1519	 47.3800	  7.5800	   7.580	  91.135
 1526	 47.7200	  7.6163	   7.616	  91.555
 1533	 48.0600	  7.6512	   7.651	  91.975
 1540	 48.3800	  7.6862	   7.686	  92.395
 1547	 48.7200	  7.7213	   7.721	  92.815
 1554	 33.6000	  7.7850	   7.785	  93.235
 1561	  0.1000	  7.8087	   7.809	  93.655
 1568	  0.1000	  7.8438	   7.844	  94.075
 1575	  0.1000	  7.8775	   7.878	  94.495
 1582	  0.1000	  7.9125	   7.912	  94.915
 1589	  0.1000	  7.9475	   7.947	  95.335
 1596	  0.1000	  7.9825	   7.982	  95.755
 1603	  0.1000	  8.0175	   8.017	  96.175
 1610	  0.1000	  8.0525	   8.052	  96.595
 1617	  0.1000	  8.0875	   8.087	  97.015
 1624	  0.1000	  8.1225	   8.122	  97.435
 1631	  0.1000	  8.1575	   8.158	  97.855
 1638	  0.1000	  8.1925	   8.193	  98.275
 1640	  0.1000	  8.2025	   8.202	  98.395
ControlMode:	0
Rate:	  5.0000
(null)
4
step	1
0
5.000000
0.000000
1
1
0.500000
2
step	2
1
5.000000
0.000000
1
1
2.000000
3
step	3
5
2.000000
0.000000
1
0
30
4
step	4
8
0.000000
0.000000
0
0
0.000000
0
2