Folder: _LabMateriaisEM740--Unicamp/Experimento 4/Resultados Experimento 4-20210423/arquivos csv (part 2)

File: Polim20.csv
Order;Load(kN);Defor(mm);Stroke(mm);Time(s)
0;0;0;0;0
30;0.22;0.5775;0.577;1.795
60;0.36;1.1775;1.178;3.595
90;0.44;1.7775;1.777;5.395
120;0.48;2.3787;2.379;7.195
150;0.48;2.9787;2.979;8.995
180;0.48;3.5812;3.581;10.795
210;0.46;4.185;4.185;12.595
240;0.44;4.785;4.785;14.395
270;0.44;5.3875;5.387;16.195
300;0.42;5.9887;5.989;17.995
330;0.4;6.59;6.59;19.795
360;0.36;7.1925;7.192;21.595
390;0.3;7.7962;7.796;23.395
420;0.28;8.4;8.4;25.195
450;0.26;9.0025;9.002;26.995
480;0.26;9.6038;9.604;28.795
510;0.26;10.2037;10.204;30.595
540;0.26;10.8062;10.806;32.395
570;0.26;11.4087;11.409;34.195
600;0.26;12.0112;12.011;35.995
630;0.26;12.6137;12.614;37.795
660;0.26;13.215;13.215;39.595
690;0.26;13.8162;13.816;41.395
720;0.26;14.4175;14.417;43.195
750;0.26;15.0175;15.017;44.995
780;0.26;15.62;15.62;46.795
810;0.26;16.2225;16.222;48.595
840;0.26;16.8263;16.826;50.395
870;0.26;17.4287;17.429;52.195
900;0.26;18.03;18.03;53.995
930;0.26;18.6325;18.632;55.795
960;0.26;19.2337;19.234;57.595
990;0.26;19.835;19.835;59.395
1020;0.26;20.4375;20.438;61.195
1050;0.26;21.0387;21.039;62.995
1080;0.26;21.6412;21.641;64.795
1110;0.26;22.2412;22.241;66.595
1140;0.26;22.8412;22.841;68.395
1170;0.26;23.4425;23.442;70.195
1200;0.26;24.045;24.045;71.995
1230;0.26;24.6475;24.647;73.795
1260;0.26;25.2487;25.249;75.595
1290;0.26;25.8512;25.851;77.395
1320;0.26;26.4525;26.452;79.195
1350;0.24;27.055;27.055;80.995
1380;0.26;27.6562;27.656;82.795
1410;0.26;28.26;28.26;84.595
1440;0.26;28.8625;28.862;86.395
1470;0.26;29.465;29.465;88.195
1500;0.26;30.0662;30.066;89.995
1530;0.26;30.6675;30.667;91.795
1560;0.26;31.2675;31.267;93.595
1590;0.26;31.8687;31.869;95.395
1620;0.26;32.4712;32.471;97.195
1650;0.26;33.0725;33.072;98.995
1680;0.26;33.675;33.675;100.795
1710;0.26;34.2762;34.276;102.595
1740;0.26;34.8762;34.876;104.395
1770;0.26;35.4787;35.479;106.195
1800;0.24;36.0812;36.081;107.995
1830;0.26;36.6838;36.684;109.795
1860;0.24;37.2863;37.286;111.595
1890;0.26;37.8875;37.888;113.395
1920;0.26;38.49;38.49;115.195
1950;0.26;39.09;39.09;116.995
1980;0.26;39.6925;39.692;118.795
2010;0.24;40.2938;40.294;120.595
2040;0.26;40.895;40.895;122.395
2070;0.26;41.4975;41.497;124.195
2100;0.26;42.0987;42.099;125.995
2130;0.24;42.7;42.7;127.795
2160;0.24;43.3013;43.301;129.595
2190;0.26;43.9025;43.903;131.395
2220;0.26;44.505;44.505;133.195
2250;0.26;45.1063;45.106;134.995
2280;0.26;45.7087;45.709;136.795
2310;0.26;46.3112;46.311;138.595
2340;0.26;46.9137;46.914;140.395
2370;0.26;47.5163;47.516;142.195
2400;0.26;48.1187;48.119;143.995
2430;0.26;48.72;48.72;145.795
2460;0.26;49.3237;49.324;147.595
2490;0.26;49.925;49.925;149.395
2520;0.26;50.5275;50.528;151.195
2550;0.26;51.1287;51.129;152.995
2580;0.26;51.73;51.73;154.795
2610;0.26;52.3312;52.331;156.595
2640;0.26;52.9325;52.932;158.395
2670;0.26;53.5337;53.534;160.195
2700;0.26;54.1362;54.136;161.995
2730;0.26;54.7375;54.737;163.795
2760;0.26;55.34;55.34;165.595
2790;0.26;55.94;55.94;167.395
2820;0.26;56.5437;56.544;169.195
2850;0.26;57.145;57.145;170.995
2880;0.26;57.7475;57.747;172.795
2910;0.24;58.3512;58.351;174.595
2940;0.26;58.9525;58.952;176.395
2970;0.26;59.5537;59.554;178.195
3000;0.26;60.1562;60.156;179.995
3030;0.26;60.7562;60.756;181.795
3060;0.26;61.3575;61.357;183.595
3090;0.26;61.96;61.96;185.395
3120;0.26;62.5612;62.561;187.195
3150;0.26;63.1625;63.162;188.995
3180;0.26;63.7637;63.764;190.795
3210;0.26;64.365;64.365;192.595
3240;0.26;64.9662;64.966;194.395
3270;0.26;65.5687;65.569;196.195
3300;0.26;66.1712;66.171;197.995
3330;0.26;66.7738;66.774;199.795
3360;0.26;67.3763;67.376;201.595
3390;0.26;67.9788;67.979;203.395
3420;0.26;68.5812;68.581;205.195
3450;0.26;69.1813;69.181;206.995
3480;0.26;69.785;69.785;208.795
3510;0.26;70.385;70.385;210.595
3540;0.26;70.9875;70.987;212.395
3570;0.26;71.5887;71.589;214.195
3600;0.26;72.19;72.19;215.995
3630;0.26;72.7913;72.791;217.795
3660;0.26;73.3913;73.391;219.595
3690;0.26;73.9925;73.993;221.395
3720;0.26;74.5938;74.594;223.195
3750;0.26;75.195;75.195;224.995
3780;0.26;75.7962;75.796;226.795
3810;0.26;76.3975;76.397;228.595
3840;0.26;77;77;230.395
3870;0.26;77.6012;77.601;232.195
3900;0.26;78.205;78.205;233.995
3930;0.26;78.8075;78.807;235.795
3960;0.26;79.4087;79.409;237.595
3990;0.26;80.0112;80.011;239.395
4020;0.26;80.6125;80.612;241.195
4050;0.26;81.2125;81.213;242.995
4080;0.26;81.8138;81.814;244.795
4110;0.26;82.4162;82.416;246.595
4140;0.26;83.0175;83.018;248.395
4170;0.26;83.62;83.62;250.195
4200;0.26;84.22;84.22;251.995
4230;0.26;84.8213;84.821;253.795
4260;0.26;85.4238;85.424;255.595
4290;0.26;86.0262;86.026;257.395
4320;0.26;86.63;86.63;259.195
4350;0.26;87.2337;87.234;260.995
4380;0.26;87.8363;87.836;262.795
4410;0.26;88.4388;88.439;264.595
4440;0.26;89.0387;89.039;266.395
4470;0.26;89.6425;89.642;268.195
4500;0.26;90.2425;90.243;269.995
4530;0.26;90.8462;90.846;271.795
4560;0.26;91.4463;91.446;273.595
4590;0.26;92.0487;92.049;275.395
4620;0.26;92.6488;92.649;277.195
4650;0.26;93.25;93.25;278.995
4680;0.26;93.8525;93.853;280.795
4710;0.26;94.4525;94.452;282.595
4740;0.26;95.055;95.055;284.395
4770;0.26;95.6575;95.658;286.195
4800;0.26;96.26;96.26;287.995
4830;0.26;96.8625;96.862;289.795
4860;0.26;97.4625;97.463;291.595
4890;0.26;98.0662;98.066;293.395
4920;0.26;98.6675;98.667;295.195
4950;0.26;99.2712;99.271;296.995
4980;0.26;99.8725;99.872;298.795
5010;0.26;100.4725;100.472;300.595
5040;0.26;101.0737;101.074;302.395
5070;0.26;101.675;101.675;304.195
5100;0.26;102.2762;102.276;305.995
5130;0.26;102.8787;102.879;307.795
5160;0.26;103.48;103.48;309.595
5190;0.26;104.0825;104.082;311.395
5220;0.26;104.6837;104.684;313.195
5250;0.26;105.285;105.285;314.995
5280;0.26;105.8862;105.886;316.795
5310;0.28;106.4887;106.489;318.595
5340;0.28;107.0912;107.091;320.395
5370;0.28;107.695;107.695;322.195
5400;0.28;108.2975;108.298;323.995
5430;0.28;108.8988;108.899;325.795
5460;0.28;109.4987;109.499;327.595
5490;0.28;110.1;110.1;329.395
5520;0.28;110.7025;110.702;331.195
5550;0.28;111.305;111.305;332.995
5580;0.28;111.9062;111.906;334.795
5610;0.28;112.5088;112.509;336.595
5640;0.28;113.1087;113.109;338.395
5670;0.28;113.7087;113.709;340.195
5700;0.28;114.31;114.31;341.995
5730;0.28;114.9112;114.911;343.795
5760;0.3;115.5137;115.514;345.595
5790;0.3;116.1162;116.116;347.395
5820;0.3;116.7188;116.719;349.195
5850;0.3;117.3213;117.321;350.995
5880;0.3;117.9225;117.923;352.795
5910;0.3;118.5238;118.524;354.595
5940;0.3;119.1262;119.126;356.395
5970;0.3;119.7287;119.729;358.195
6000;0.3;120.33;120.33;359.995
6030;0.3;120.9325;120.932;361.795
6060;0.3;121.5325;121.532;363.595
6090;0.3;122.1338;122.134;365.395
6120;0.3;122.735;122.735;367.195
6150;0.32;123.3363;123.336;368.995
6180;0.32;123.94;123.94;370.795
6210;0.32;124.5425;124.542;372.595
6240;0.32;125.145;125.145;374.395
6270;0.3;125.7462;125.746;376.195
6300;0.3;126.3487;126.349;377.995
6330;0.3;126.9512;126.951;379.795
6360;0.28;127.5537;127.554;381.595
6390;0.3;128.1562;128.156;383.395
6420;0.28;128.76;128.76;385.195
6450;0.28;129.3613;129.361;386.995
6480;0.3;129.9625;129.962;388.795
6510;0.28;130.5612;130.561;390.595
6540;0.28;131.1637;131.164;392.395
6570;0.28;131.765;131.765;394.195
6600;0.28;132.3687;132.369;395.995
6630;0.3;132.97;132.97;397.795
6660;0.28;133.5712;133.571;399.595
6690;0.3;134.1712;134.171;401.395
6720;0.3;134.7725;134.772;403.195
6750;0.3;135.375;135.375;404.995
6780;0.3;135.9762;135.976;406.795
6810;0.3;136.58;136.58;408.595
6840;0.3;137.1825;137.182;410.395
6870;0.3;137.785;137.785;412.195
6900;0.3;138.3862;138.386;413.995
6930;0.3;138.9875;138.988;415.795
6960;0.3;139.5875;139.587;417.595
6990;0.3;140.19;140.19;419.395
7020;0.3;140.7937;140.794;421.195
7050;0.3;141.395;141.395;422.995
7080;0.3;141.9962;141.996;424.795
7110;0.3;142.5975;142.598;426.595
7140;0.3;143.1975;143.197;428.395
7170;0.3;143.8;143.8;430.195
7200;0.3;144.4012;144.401;431.995
7230;0.3;145.0038;145.004;433.795
7260;0.3;145.6062;145.606;435.595
7290;0.3;146.2087;146.209;437.395
7320;0.3;146.81;146.81;439.195
7350;0.3;147.4125;147.412;440.995
7380;0.32;148.0137;148.014;442.795
7410;0.32;148.6138;148.614;444.595
7440;0.32;149.2162;149.216;446.395
7470;0.32;149.82;149.82;448.195
7500;0.32;150.42;150.42;449.995
7530;0.32;151.02;151.02;451.795
7560;0.32;151.62;151.62;453.595
7590;0.32;152.2213;152.221;455.395
7620;0.32;152.8237;152.824;457.195
7650;0.32;153.4238;153.424;458.995
7680;0.32;154.0262;154.026;460.795
7710;0.32;154.6275;154.628;462.595
7740;0.32;155.23;155.23;464.395
7770;0.32;155.83;155.83;466.195
7800;0.32;156.4325;156.432;467.995
7830;0.32;157.035;157.035;469.795
7860;0.3;157.6387;157.639;471.595
7890;0.3;158.2412;158.241;473.395
7920;0.3;158.8438;158.844;475.195
7950;0.3;159.445;159.445;476.995
7980;0.3;160.045;160.045;478.795
8010;0.28;160.645;160.645;480.595
8040;0.28;161.2487;161.249;482.395
8070;0.24;161.8512;161.851;484.195
8100;0.24;162.455;162.455;485.995
8130;0.22;163.055;163.055;487.795
8160;0.22;163.6575;163.658;489.595
8190;0.22;164.2575;164.257;491.395
8220;0.22;164.86;164.86;493.195
8250;0.22;165.4625;165.462;494.995
8280;0.22;166.065;166.065;496.795
8310;0.2;166.6687;166.669;498.595
8340;0.2;167.2712;167.271;500.395
8370;0.22;167.8725;167.872;502.195
8400;0.22;168.4725;168.473;503.995
8430;0.2;169.075;169.075;505.795
8460;0.2;169.6775;169.677;507.595
8490;0.2;170.28;170.28;509.395
8520;0.2;170.8812;170.881;511.195
8550;0.2;171.4825;171.482;512.995
8580;0.18;172.0825;172.082;514.795
8610;0.2;172.6837;172.684;516.595
8640;0.18;173.285;173.285;518.395
8670;0.18;173.8875;173.887;520.195
8700;0.16;174.49;174.49;521.995
8730;0.14;175.0925;175.092;523.795
8760;0.14;175.6937;175.694;525.595
8790;0.14;176.295;176.295;527.395
8820;0.04;176.8962;176.896;529.195
8850;0.04;177.4987;177.499;530.995
8880;0.04;178.1012;178.101;532.795
8910;0.04;178.705;178.705;534.595
8940;0.04;179.3075;179.307;536.395
8944;0.04;179.3862;179.386;536.635

File: Polim100.csv
index;Load(kN);Defor(mm);Stroke(mm);Time(s)
0;0;0;0;0
1;0.02;0.708;0.052;0.055
2;0.04;0.694;0.149;0.115
3;0.04;0.7;0.249;0.175
4;0.06;0.704;0.347;0.235
5;0.06;0.706;0.449;0.295
6;0.04;0.706;0.548;0.355
7;0.04;0.706;0.647;0.415
8;0.04;0.706;0.749;0.475
9;0.04;0.706;0.847;0.535
10;0.06;0.706;0.949;0.595
11;0.12;0.706;1.048;0.655
12;0.16;0.706;1.149;0.715
13;0.2;0.706;1.247;0.775
14;0.26;0.704;1.349;0.835
15;0.3;0.704;1.449;0.895
16;0.32;0.706;1.549;0.955
17;0.36;0.704;1.65;1.015
18;0.38;0.706;1.749;1.075
19;0.42;0.706;1.85;1.135
20;0.44;0.704;1.95;1.195
21;0.46;0.704;2.051;1.255
22;0.48;0.704;2.151;1.315
23;0.5;0.704;2.25;1.375
24;0.52;0.704;2.351;1.435
25;0.52;0.704;2.451;1.495
26;0.54;0.704;2.553;1.555
27;0.56;0.704;2.652;1.615
28;0.58;0.704;2.754;1.675
29;0.6;0.704;2.854;1.735
30;0.6;0.704;2.955;1.795
31;0.6;0.704;3.055;1.855
32;0.62;0.704;3.154;1.915
33;0.62;0.704;3.255;1.975
34;0.62;0.704;3.355;2.035
35;0.62;0.704;3.456;2.095
36;0.62;0.704;3.556;2.155
37;0.62;0.704;3.656;2.215
38;0.6;0.702;3.756;2.275
39;0.6;0.702;3.857;2.335
40;0.6;0.702;3.957;2.395
41;0.58;0.702;4.057;2.455
42;0.58;0.702;4.159;2.515
43;0.58;0.702;4.259;2.575
44;0.58;0.702;4.36;2.635
45;0.56;0.702;4.457;2.695
46;0.56;0.7;4.559;2.755
47;0.56;0.7;4.659;2.815
48;0.56;0.7;4.757;2.875
49;0.54;0.7;4.859;2.935
50;0.54;0.7;4.959;2.995
51;0.54;0.7;5.06;3.055
52;0.54;0.7;5.16;3.115
53;0.54;0.702;5.26;3.175
54;0.54;0.7;5.359;3.235
55;0.52;0.7;5.46;3.295
56;0.52;0.7;5.559;3.355
57;0.52;0.7;5.659;3.415
58;0.52;0.7;5.76;3.475
59;0.52;0.7;5.86;3.535
60;0.52;0.7;5.961;3.595
61;0.52;0.7;6.061;3.655
62;0.5;0.7;6.16;3.715
63;0.5;0.7;6.26;3.775
64;0.5;0.7;6.361;3.835
65;0.5;0.7;6.461;3.895
66;0.5;0.7;6.56;3.955
67;0.5;0.7;6.662;4.015
68;0.48;0.7;6.762;4.075
69;0.48;0.7;6.864;4.135
70;0.48;0.7;6.961;4.195
71;0.46;0.7;7.064;4.255
72;0.46;0.7;7.162;4.315
73;0.42;0.7;7.262;4.375
74;0.06;0.696;7.365;4.435
75;0.06;0.698;7.464;4.495
76;0.06;0.698;7.566;4.555
77;0.06;0.698;7.666;4.615
78;0.06;0.698;7.767;4.675
79;0.06;0.698;7.866;4.735
80;0.06;0.698;7.967;4.795
81;0.06;0.698;8.068;4.855
82;0.06;0.698;8.167;4.915
83;0.06;0.698;8.269;4.975
84;0.06;0.698;8.367;5.035
85;0.06;0.698;8.469;5.095
86;0.06;0.698;8.569;5.155
87;0.06;0.698;8.67;5.215
88;0.06;0.698;8.769;5.275
89;0.06;0.7;8.87;5.335
90;0.06;0.698;8.97;5.395
91;0.06;0.698;9.069;5.455
92;0.06;0.698;9.17;5.515
93;0.06;0.7;9.27;5.575
94;0.06;0.7;9.371;5.635
95;0.06;0.7;9.47;5.695
96;0.06;0.698;9.571;5.755
97;0.06;0.698;9.671;5.815
98;0.06;0.698;9.77;5.875
99;0.06;0.698;9.872;5.935
100;0.06;0.698;9.971;5.995
101;0.06;0.698;10.073;6.055
102;0.06;0.698;10.172;6.115
103;0.06;0.698;10.274;6.175
104;0.06;0.698;10.374;6.235
105;0.06;0.698;10.475;6.295
106;0.06;0.698;10.574;6.355
107;0.06;0.698;10.674;6.415
108;0.06;0.698;10.775;6.475
109;0.06;0.698;10.875;6.535
110;0.06;0.698;10.976;6.595
111;0.06;0.698;11.076;6.655
112;0.06;0.698;11.177;6.715
113;0.06;0.698;11.278;6.775
114;0.06;0.698;11.379;6.835
115;0.06;0.698;11.479;6.895
116;0.06;0.698;11.579;6.955
117;0.06;0.698;11.68;7.015
118;0.06;0.698;11.78;7.075
119;0.06;0.7;11.881;7.135