Folder: _LabMateriaisEM740--Unicamp/Experimento 4/Resultados Experimento 4-20210423/arquivos txt

Note: README.md
<h1 align='center'> Laboratório de Materiais - EM740 </h1>

<h2> Disciplina EM740 - Engenharia Mecânica 1s2021 Unicamp </h2>

Códigos utilizados para a análise de dados da disciplina EM740 do curso de Engenharia Mecânica da Unicamp (1s2021)

File: AluminioEnvelhecido.txt
0
Diameter:	   8.10
   1.00
Area:	  51.5300
GaugeLength:	  50.00
2009-1-1
al envelhecido
001
DataNumber:	2600
index	Load(kN)	Defor(mm)	Stroke(mm)	Time(s)
    0	  0.0000	  0.0000	   0.000	   0.000
   11	  0.1600	  0.0040	   0.039	   0.655
   22	  0.2600	  0.0060	   0.094	   1.315
   33	  0.7600	  0.0120	   0.149	   1.975
   44	  1.1800	  0.0200	   0.204	   2.635
   55	  1.6000	  0.0240	   0.259	   3.295
   66	  1.9400	  0.0280	   0.314	   3.955
   77	  2.2200	  0.0320	   0.367	   4.615
   88	  2.5000	  0.0340	   0.422	   5.275
   99	  2.7400	  0.0340	   0.477	   5.935
  110	  2.9800	  0.0340	   0.532	   6.595
  121	  3.2000	  0.0380	   0.587	   7.255
  132	  3.4200	  0.0380	   0.642	   7.915
  143	  3.6200	  0.0420	   0.696	   8.575
  154	  3.8200	  0.0420	   0.751	   9.235
  165	  4.0400	  0.0440	   0.806	   9.895
  176	  4.2600	  0.0460	   0.861	  10.555
  187	  4.4800	  0.0500	   0.916	  11.215
  198	  4.6800	  0.0500	   0.971	  11.875
  209	  4.8800	  0.0540	   1.026	  12.535
  220	  5.1000	  0.0560	   1.081	  13.195
  231	  5.3200	  0.0600	   1.136	  13.855
  242	  5.5400	  0.0620	   1.191	  14.515
  253	  5.7800	  0.0660	   1.246	  15.175
  264	  6.0000	  0.0680	   1.303	  15.835
  275	  6.2400	  0.0720	   1.357	  16.495
  286	  6.4800	  0.0760	   1.413	  17.155
  297	  6.7200	  0.0780	   1.467	  17.815
  308	  6.9600	  0.0820	   1.522	  18.475
  319	  7.2000	  0.0840	   1.577	  19.135
  330	  7.4400	  0.0880	   1.632	  19.795
  341	  7.7000	  0.0900	   1.688	  20.455
  352	  7.9400	  0.0960	   1.742	  21.115
  363	  8.1800	  0.0980	   1.798	  21.775
  374	  8.4400	  0.1020	   1.852	  22.435
  385	  8.6800	  0.1040	   1.904	  23.095
  396	  8.9200	  0.1080	   1.959	  23.755
  407	  9.1800	  0.1120	   2.014	  24.415
  418	  9.4400	  0.1160	   2.070	  25.075
  429	  9.7000	  0.1180	   2.125	  25.735
  440	  9.9600	  0.1220	   2.180	  26.395
  451	 10.2200	  0.1260	   2.235	  27.055
  462	 10.4800	  0.1300	   2.290	  27.715
  473	 10.7400	  0.1340	   2.345	  28.375
  484	 11.0200	  0.1380	   2.400	  29.035
  495	 11.2800	  0.1400	   2.455	  29.695
  506	 11.5600	  0.1460	   2.511	  30.355
  517	 11.8200	  0.1500	   2.566	  31.015
  528	 12.1000	  0.1540	   2.621	  31.675
  539	 12.3600	  0.1580	   2.676	  32.335
  550	 12.6400	  0.1620	   2.731	  32.995
  561	 12.9000	  0.1660	   2.786	  33.655
  572	 13.1800	  0.1700	   2.842	  34.315
  583	 13.4400	  0.1760	   2.898	  34.975
  594	 13.7000	  0.1800	   2.952	  35.635
  605	 13.9800	  0.1860	   3.007	  36.295
  616	 14.2400	  0.1920	   3.062	  36.955
  627	 14.5000	  0.1960	   3.117	  37.615
  638	 14.7600	  0.2020	   3.172	  38.275
  649	 15.0200	  0.2080	   3.229	  38.935
  660	 15.2800	  0.2160	   3.284	  39.595
  671	 15.5200	  0.2260	   3.339	  40.255
  682	 15.7000	  0.2400	   3.394	  40.915
  693	 15.7800	  0.2680	   3.449	  41.575
  704	 15.8200	  0.3040	   3.504	  42.235
  715	 15.8600	  0.3440	   3.560	  42.895
  726	 15.9200	  0.3860	   3.615	  43.555
  737	 15.9600	  0.4300	   3.670	  44.215
  748	 15.9800	  0.4740	   3.725	  44.875
  759	 16.0200	  0.5200	   3.781	  45.535
  770	 16.0400	  0.5660	   3.836	  46.195
  781	 16.0800	  0.6120	   3.891	  46.855
  792	 16.1000	  0.6580	   3.946	  47.515
  803	 16.1400	  0.7040	   4.001	  48.175
  814	 16.1600	  0.7520	   4.056	  48.835
  825	 16.1800	  0.7980	   4.111	  49.495
  836	 16.2000	  0.8460	   4.166	  50.155
  847	 16.2400	  0.8940	   4.221	  50.815
  858	 16.2600	  0.9400	   4.276	  51.475
  869	 16.2800	  0.9880	   4.331	  52.135
  880	 16.3000	  1.0414	   4.386	  52.795
  891	 16.3200	  1.0976	   4.443	  53.455
  902	 16.3400	  1.1526	   4.497	  54.115
  913	 16.3600	  1.2076	   4.552	  54.775
  924	 16.3800	  1.2626	   4.608	  55.435
  935	 16.4000	  1.3176	   4.662	  56.095
  946	 16.4000	  1.3726	   4.717	  56.755
  957	 16.0800	  1.3814	   4.726	  57.415
  968	 15.9600	  1.3814	   4.726	  58.075
  979	 15.8800	  1.3814	   4.726	  58.735
  990	 15.8400	  1.3814	   4.726	  59.395
 1001	 15.8000	  1.3814	   4.726	  60.055
 1012	 15.7600	  1.3814	   4.726	  60.715
 1023	 15.7400	  1.3814	   4.726	  61.375
 1034	 15.7200	  1.3814	   4.726	  62.035
 1045	 15.7000	  1.3814	   4.726	  62.695
 1056	 15.6800	  1.3814	   4.726	  63.355
 1067	 15.6600	  1.3814	   4.726	  64.015
 1078	 15.6400	  1.3814	   4.726	  64.675
 1089	 15.6400	  1.3814	   4.726	  65.335
 1100	 15.6200	  1.3814	   4.726	  65.995
 1111	 15.6000	  1.3814	   4.726	  66.655
 1122	 15.6000	  1.3814	   4.726	  67.315
 1133	 15.5800	  1.3814	   4.726	  67.975
 1144	 15.5800	  1.3814	   4.726	  68.635
 1155	 15.5600	  1.3814	   4.726	  69.295
 1166	 15.5600	  1.3814	   4.726	  69.955
 1177	 15.5600	  1.3814	   4.726	  70.615
 1188	 15.5400	  1.3814	   4.726	  71.275
 1199	 15.5400	  1.3814	   4.726	  71.935
 1210	 15.5400	  1.3814	   4.726	  72.595
 1221	 15.5200	  1.3814	   4.726	  73.255
 1232	 15.5200	  1.3814	   4.726	  73.915
 1243	 15.5000	  1.3814	   4.726	  74.575
 1254	 15.5000	  1.3814	   4.726	  75.235
 1265	 15.5000	  1.3814	   4.726	  75.895
 1276	 15.4800	  1.3814	   4.726	  76.555
 1287	 15.4800	  1.3814	   4.726	  77.215
 1298	 15.4800	  1.3814	   4.726	  77.875
 1309	 15.4800	  1.3814	   4.726	  78.535
 1320	 15.4800	  1.3814	   4.726	  79.195
 1331	 15.4600	  1.3814	   4.726	  79.855
 1342	 15.4600	  1.3814	   4.726	  80.515
 1353	 15.4600	  1.3814	   4.726	  81.175
 1364	 15.4400	  1.3814	   4.726	  81.835
 1375	 15.4400	  1.3814	   4.726	  82.495
 1386	 15.4400	  1.3814	   4.726	  83.155
 1397	 15.4400	  1.3814	   4.726	  83.815
 1408	 15.4200	  1.3814	   4.726	  84.475
 1419	 15.4200	  1.3814	   4.726	  85.135
 1430	 15.4200	  1.3814	   4.726	  85.795
 1441	 15.4200	  1.3814	   4.726	  86.455
 1452	 15.4200	  1.3814	   4.726	  87.115
 1463	 15.4000	  1.3814	   4.726	  87.775
 1474	 15.4000	  1.3814	   4.726	  88.435
 1485	 15.4000	  1.3814	   4.726	  89.095
 1496	 15.4000	  1.3814	   4.726	  89.755
 1507	 15.4000	  1.3814	   4.726	  90.415
 1518	 15.4000	  1.3814	   4.726	  91.075
 1529	 15.3800	  1.3814	   4.726	  91.735
 1540	 15.3800	  1.3814	   4.726	  92.395
 1551	 15.3800	  1.3814	   4.726	  93.055
 1562	 15.3800	  1.3814	   4.726	  93.715
 1573	 15.3800	  1.3814	   4.726	  94.375
 1584	 16.0400	  1.4139	   4.759	  95.035
 1595	 16.6600	  1.4689	   4.814	  95.695
 1606	 16.5800	  1.5251	   4.870	  96.355
 1617	 16.5800	  1.5789	   4.924	  97.015
 1628	 16.5800	  1.6339	   4.979	  97.675
 1639	 16.5800	  1.6889	   5.034	  98.335
 1650	 16.5600	  1.7439	   5.089	  98.995
 1661	 16.5400	  1.7989	   5.144	  99.655
 1672	 16.5200	  1.8551	   5.200	 100.315
 1683	 16.5200	  1.9101	   5.255	 100.975
 1694	 16.5200	  1.9651	   5.310	 101.635
 1705	 16.5400	  2.0201	   5.365	 102.295
 1716	 16.5400	  2.0751	   5.420	 102.955
 1727	 16.5600	  2.1301	   5.475	 103.615
 1738	 16.5600	  2.1851	   5.530	 104.275
 1749	 16.5800	  2.2401	   5.585	 104.935
 1760	 16.5800	  2.2964	   5.641	 105.595
 1771	 16.6000	  2.3514	   5.696	 106.255
 1782	 16.6000	  2.4064	   5.751	 106.915
 1793	 16.6000	  2.4614	   5.806	 107.575
 1804	 16.6200	  2.5164	   5.861	 108.235
 1815	 16.6200	  2.5714	   5.916	 108.895
 1826	 16.6200	  2.6264	   5.971	 109.555
 1837	 16.6200	  2.6814	   6.026	 110.215
 1848	 16.6200	  2.7364	   6.081	 110.875
 1859	 16.6200	  2.7914	   6.136	 111.535
 1870	 16.6200	  2.8476	   6.192	 112.195
 1881	 16.6000	  2.9026	   6.247	 112.855
 1892	 16.6000	  2.9576	   6.302	 113.515
 1903	 16.6000	  3.0126	   6.358	 114.175
 1914	 16.5800	  3.0676	   6.412	 114.835
 1925	 16.5600	  3.1226	   6.467	 115.495
 1936	 16.5600	  3.1776	   6.523	 116.155
 1947	 16.5400	  3.2339	   6.579	 116.815
 1958	 16.5000	  3.2889	   6.634	 117.475
 1969	 16.4800	  3.3439	   6.689	 118.135
 1980	 16.4600	  3.3989	   6.744	 118.795
 1991	 16.4200	  3.4539	   6.799	 119.455
 2002	 16.4000	  3.5089	   6.854	 120.115
 2013	 16.3600	  3.5639	   6.909	 120.775
 2024	 16.3200	  3.6189	   6.964	 121.435
 2035	 16.2600	  3.6751	   7.020	 122.095
 2046	 16.2200	  3.7301	   7.075	 122.755
 2057	 16.1800	  3.7851	   7.130	 123.415
 2068	 16.1200	  3.8401	   7.185	 124.075
 2079	 16.0600	  3.8951	   7.240	 124.735
 2090	 16.0000	  3.9501	   7.295	 125.395
 2101	 15.9400	  4.0051	   7.350	 126.055
 2112	 15.8800	  4.0601	   7.405	 126.715
 2123	 15.8200	  4.1151	   7.460	 127.375
 2134	 15.7400	  4.1714	   7.516	 128.035
 2145	 15.6800	  4.2264	   7.571	 128.695
 2156	 15.6000	  4.2814	   7.626	 129.355
 2167	 15.5400	  4.3364	   7.681	 130.015
 2178	 15.4600	  4.3914	   7.736	 130.675
 2189	 15.3800	  4.4464	   7.791	 131.335
 2200	 15.3000	  4.5026	   7.847	 131.995
 2211	 15.2200	  4.5576	   7.902	 132.655
 2222	 15.1400	  4.6126	   7.957	 133.315
 2233	 15.0600	  4.6676	   8.012	 133.975
 2244	 14.9600	  4.7226	   8.068	 134.635
 2255	 14.8800	  4.7776	   8.122	 135.295
 2266	 14.8000	  4.8339	   8.179	 135.955
 2277	 14.7000	  4.8889	   8.234	 136.615
 2288	 14.6000	  4.9439	   8.289	 137.275
 2299	 14.5000	  4.9989	   8.344	 137.935
 2310	 14.4000	  5.0539	   8.399	 138.595
 2321	 14.3200	  5.1089	   8.454	 139.255
 2332	 14.2000	  5.1651	   8.510	 139.915
 2343	 14.1000	  5.2201	   8.565	 140.575
 2354	 14.0000	  5.2751	   8.620	 141.235
 2365	 13.9000	  5.3301	   8.675	 141.895
 2376	 13.7800	  5.3851	   8.730	 142.555
 2387	 13.6600	  5.4401	   8.785	 143.215
 2398	 13.5600	  5.4951	   8.840	 143.875
 2409	 13.4400	  5.5514	   8.896	 144.535
 2420	 13.3200	  5.6064	   8.951	 145.195
 2431	 13.1800	  5.6614	   9.006	 145.855
 2442	 13.0600	  5.7164	   9.061	 146.515
 2453	 12.9400	  5.7714	   9.116	 147.175
 2464	 12.8000	  5.8264	   9.171	 147.835
 2475	 12.6600	  5.8814	   9.226	 148.495
 2486	 12.5200	  5.9364	   9.281	 149.155
 2497	 12.3600	  5.9926	   9.337	 149.815
 2508	 12.2000	  6.0476	   9.392	 150.475
 2519	 12.0400	  6.1026	   9.448	 151.135
 2530	  0.0600	  6.1651	   9.510	 151.795
 2541	  0.0600	  6.2201	   9.565	 152.455
 2552	  0.0600	  6.2764	   9.621	 153.115
 2563	  0.0600	  6.3314	   9.676	 153.775
 2574	  0.0600	  6.3864	   9.731	 154.435
 2585	  0.0600	  6.4414	   9.786	 155.095
 2596	  0.0600	  6.4964	   9.841	 155.755
 2599	  0.0600	  6.5114	   9.856	 155.935
ControlMode:	0
Rate:	  5.0000
(null)
4
step	1
0
5.000000
0.000000
1
1
0.500000
2
step	2
1
5.000000
0.000000
1
1
2.000000
3
step	3
5
2.000000
0.000000
1
0
30
4
step	4
8
0.000000
0.000000
0
0
0.000000
0
2

File: AluminioSolubilizado.txt
0
Diameter:	   8.00
   1.00
Area:	  50.2655
GaugeLength:	  50.00
2009-1-1
al solu
001
DataNumber:	3395
index	Load(kN)	Defor(mm)	Stroke(mm)	Time(s)
    0	  0.0000	  0.0000	   0.000	   0.000
   15	  0.1600	  0.0020	   0.059	   0.895
   30	  0.3800	  0.0080	   0.134	   1.795
   45	  0.4600	  0.0120	   0.206	   2.695
   60	  0.5400	  0.0140	   0.281	   3.595
   75	  0.6600	  0.0160	   0.356	   4.495
   90	  0.7600	  0.0180	   0.433	   5.395
  105	  0.8800	  0.0200	   0.506	   6.295
  120	  0.9800	  0.0220	   0.581	   7.195
  135	  1.0800	  0.0240	   0.656	   8.095
  150	  1.2000	  0.0260	   0.731	   8.995
  165	  1.3200	  0.0280	   0.805	   9.895
  180	  1.4400	  0.0300	   0.881	  10.795
  195	  1.5800	  0.0300	   0.955	  11.695
  210	  1.7200	  0.0320	   1.031	  12.595
  225	  1.8600	  0.0360	   1.105	  13.495
  240	  2.0200	  0.0380	   1.180	  14.395
  255	  2.2000	  0.0400	   1.255	  15.295
  270	  2.3800	  0.0440	   1.330	  16.195
  285	  2.5800	  0.0460	   1.405	  17.095
  300	  2.7800	  0.0500	   1.480	  17.995
  315	  3.0000	  0.0540	   1.555	  18.895
  330	  3.2000	  0.0600	   1.629	  19.795
  345	  3.4400	  0.0640	   1.705	  20.695
  360	  3.6800	  0.0700	   1.780	  21.595
  375	  3.9200	  0.0760	   1.855	  22.495
  390	  4.1600	  0.0820	   1.930	  23.395
  405	  4.3800	  0.0920	   2.005	  24.295
  420	  4.5800	  0.1120	   2.080	  25.195
  435	  4.7600	  0.1400	   2.155	  26.095
  450	  4.9000	  0.1720	   2.230	  26.995
  465	  5.0400	  0.2080	   2.305	  27.895
  480	  5.1600	  0.2440	   2.380	  28.795
  495	  5.2600	  0.2840	   2.455	  29.695
  510	  5.3800	  0.3260	   2.531	  30.595
  525	  5.4800	  0.3660	   2.606	  31.495
  540	  5.6000	  0.4080	   2.681	  32.395
  555	  5.7000	  0.4520	   2.756	  33.295
  570	  5.8000	  0.4940	   2.832	  34.195
  585	  5.9000	  0.5380	   2.908	  35.095
  600	  6.0000	  0.5820	   2.982	  35.995
  615	  6.1000	  0.6260	   3.057	  36.895
  630	  6.1800	  0.6700	   3.132	  37.795
  645	  6.2800	  0.7160	   3.207	  38.695
  660	  6.3800	  0.7600	   3.283	  39.595
  675	  6.4600	  0.8060	   3.357	  40.495
  690	  6.5600	  0.8500	   3.434	  41.395
  705	  6.6400	  0.8960	   3.507	  42.295
  720	  6.7400	  0.9420	   3.582	  43.195
  735	  6.8200	  0.9880	   3.659	  44.095
  750	  6.9000	  1.0546	   3.734	  44.995
  765	  6.9800	  1.1283	   3.807	  45.895
  780	  6.9600	  1.1933	   3.872	  46.795
  795	  6.8000	  1.1933	   3.872	  47.695
  810	  6.7800	  1.1933	   3.872	  48.595
  825	  6.7600	  1.1933	   3.872	  49.495
  840	  6.7400	  1.1933	   3.872	  50.395
  855	  6.7400	  1.1933	   3.872	  51.295
  870	  6.7200	  1.1933	   3.872	  52.195
  885	  6.7200	  1.1933	   3.872	  53.095
  900	  6.7200	  1.1933	   3.872	  53.995
  915	  6.7200	  1.1933	   3.872	  54.895
  930	  6.7000	  1.1933	   3.872	  55.795
  945	  6.7000	  1.1933	   3.872	  56.695
  960	  6.7000	  1.1946	   3.874	  57.595
  975	  6.7000	  1.1946	   3.874	  58.495
  990	  6.7000	  1.1946	   3.874	  59.395
 1005	  6.7000	  1.1946	   3.874	  60.295
 1020	  6.7000	  1.1946	   3.874	  61.195
 1035	  6.6800	  1.1946	   3.874	  62.095
 1050	  6.6800	  1.1946	   3.874	  62.995
 1065	  6.6800	  1.1946	   3.874	  63.895
 1080	  6.6800	  1.1946	   3.874	  64.795
 1095	  6.6800	  1.1946	   3.874	  65.695
 1110	  6.6800	  1.1946	   3.874	  66.595
 1125	  6.6800	  1.1946	   3.874	  67.495
 1140	  6.6800	  1.1946	   3.874	  68.395
 1155	  6.6800	  1.1946	   3.874	  69.295
 1170	  6.6800	  1.1946	   3.874	  70.195
 1185	  7.3400	  1.2608	   3.940	  71.095
 1200	  7.5200	  1.3358	   4.015	  71.995
 1215	  7.4200	  1.4108	   4.090	  72.895
 1230	  7.4200	  1.4858	   4.165	  73.795
 1245	  7.4200	  1.5608	   4.240	  74.695
 1260	  7.4400	  1.6358	   4.315	  75.595
 1275	  7.4400	  1.7108	   4.390	  76.495
 1290	  7.7000	  1.7858	   4.465	  77.395
 1305	  7.7600	  1.8608	   4.540	  78.295
 1320	  7.7800	  1.9358	   4.615	  79.195
 1335	  7.8000	  2.0121	   4.691	  80.095
 1350	  7.9400	  2.0858	   4.765	  80.995
 1365	  8.0600	  2.1608	   4.840	  81.895
 1380	  8.0800	  2.2358	   4.915	  82.795
 1395	  8.1000	  2.3121	   4.991	  83.695
 1410	  8.1200	  2.3871	   5.066	  84.595
 1425	  8.2200	  2.4621	   5.141	  85.495
 1440	  8.3600	  2.5371	   5.216	  86.395
 1455	  8.2800	  2.6121	   5.291	  87.295
 1470	  8.4000	  2.6871	   5.366	  88.195
 1485	  8.4400	  2.7633	   5.443	  89.095
 1500	  8.5600	  2.8383	   5.517	  89.995
 1515	  8.5800	  2.9133	   5.592	  90.895
 1530	  8.6400	  2.9883	   5.668	  91.795
 1545	  8.7000	  3.0633	   5.742	  92.695
 1560	  8.7800	  3.1396	   5.819	  93.595
 1575	  8.7200	  3.2146	   5.894	  94.495
 1590	  8.8000	  3.2896	   5.969	  95.395
 1605	  8.8800	  3.3646	   6.044	  96.295
 1620	  8.9200	  3.4408	   6.120	  97.195
 1635	  9.0400	  3.5158	   6.195	  98.095
 1650	  9.1200	  3.5908	   6.270	  98.995
 1665	  9.0600	  3.6646	   6.344	  99.895
 1680	  9.0800	  3.7396	   6.419	 100.795
 1695	  9.1000	  3.8146	   6.494	 101.695
 1710	  9.1200	  3.8908	   6.570	 102.595
 1725	  9.3000	  3.9658	   6.645	 103.495
 1740	  9.2400	  4.0408	   6.720	 104.395
 1755	  9.3200	  4.1158	   6.795	 105.295
 1770	  9.3600	  4.1921	   6.871	 106.195
 1785	  9.3800	  4.2671	   6.946	 107.095
 1800	  9.4000	  4.3421	   7.021	 107.995
 1815	  9.4800	  4.4171	   7.096	 108.895
 1830	  9.5400	  4.4933	   7.172	 109.795
 1845	  9.5800	  4.5683	   7.247	 110.695
 1860	  9.6200	  4.6433	   7.322	 111.595
 1875	  9.6400	  4.7183	   7.398	 112.495
 1890	  9.5000	  4.7946	   7.474	 113.395
 1905	  9.6000	  4.8696	   7.549	 114.295
 1920	  9.6600	  4.9446	   7.624	 115.195
 1935	  9.6800	  5.0196	   7.699	 116.095
 1950	  9.7200	  5.0958	   7.775	 116.995
 1965	  9.8400	  5.1708	   7.850	 117.895
 1980	  9.8800	  5.2458	   7.925	 118.795
 1995	  9.9000	  5.3208	   8.000	 119.695
 2010	  9.8600	  5.3958	   8.075	 120.595
 2025	  9.8000	  5.4721	   8.151	 121.495
 2040	  9.7800	  5.5446	   8.224	 122.395
 2055	  9.8600	  5.6196	   8.299	 123.295
 2070	  9.9400	  5.6946	   8.374	 124.195
 2085	  9.9800	  5.7708	   8.450	 125.095
 2100	 10.0200	  5.8458	   8.525	 125.995
 2115	 10.0600	  5.9208	   8.600	 126.895
 2130	 10.0800	  5.9971	   8.676	 127.795
 2145	 10.1200	  6.0721	   8.751	 128.695
 2160	 10.1400	  6.1471	   8.826	 129.595
 2175	 10.1400	  6.2233	   8.903	 130.495
 2190	 10.1400	  6.2983	   8.977	 131.395
 2205	 10.0000	  6.3733	   9.052	 132.295
 2220	 10.0600	  6.4483	   9.127	 133.195
 2235	 10.0800	  6.5246	   9.204	 134.095
 2250	 10.0800	  6.5996	   9.279	 134.995
 2265	 10.1600	  6.6746	   9.354	 135.895
 2280	 10.2600	  6.7496	   9.429	 136.795
 2295	 10.3200	  6.8258	   9.505	 137.695
 2310	 10.3400	  6.9008	   9.580	 138.595
 2325	 10.3400	  6.9758	   9.655	 139.495
 2340	 10.3400	  7.0521	   9.731	 140.395
 2355	 10.4000	  7.1271	   9.806	 141.295
 2370	 10.2000	  7.2033	   9.882	 142.195
 2385	 10.2200	  7.2783	   9.957	 143.095
 2400	 10.2400	  7.3533	  10.032	 143.995
 2415	 10.2600	  7.4296	  10.109	 144.895
 2430	 10.2800	  7.5046	  10.184	 145.795
 2445	 10.2800	  7.5796	  10.259	 146.695
 2460	 10.3000	  7.6558	  10.335	 147.595
 2475	 10.3200	  7.7308	  10.410	 148.495
 2490	 10.3200	  7.8058	  10.485	 149.395
 2505	 10.3400	  7.8821	  10.561	 150.295
 2520	 10.3600	  7.9571	  10.636	 151.195
 2535	 10.4000	  8.0321	  10.711	 152.095
 2550	 10.4200	  8.1083	  10.787	 152.995
 2565	 10.4000	  8.1833	  10.863	 153.895
 2580	 10.3600	  8.2583	  10.938	 154.795
 2595	 10.3600	  8.3346	  11.014	 155.695
 2610	 10.3600	  8.4096	  11.089	 156.595
 2625	 10.3600	  8.4846	  11.164	 157.495
 2640	 10.3800	  8.5608	  11.240	 158.395
 2655	 10.3800	  8.6358	  11.315	 159.295
 2670	 10.3800	  8.7096	  11.389	 160.195
 2685	 10.3800	  8.7846	  11.464	 161.095
 2700	 10.3800	  8.8596	  11.539	 161.995
 2715	 10.3800	  8.9358	  11.615	 162.895
 2730	 10.3600	  9.0108	  11.690	 163.795
 2745	 10.3600	  9.0858	  11.765	 164.695
 2760	 10.3600	  9.1621	  11.841	 165.595
 2775	 10.3400	  9.2358	  11.915	 166.495
 2790	 10.3400	  9.3108	  11.990	 167.395
 2805	 10.3200	  9.3858	  12.065	 168.295
 2820	 10.3000	  9.4621	  12.141	 169.195
 2835	 10.2800	  9.5371	  12.216	 170.095
 2850	 10.2600	  9.6121	  12.291	 170.995
 2865	 10.2400	  9.6871	  12.366	 171.895
 2880	 10.2200	  9.7621	  12.441	 172.795
 2895	 10.2000	  9.8371	  12.516	 173.695
 2910	 10.1800	  9.9133	  12.592	 174.595
 2925	 10.1400	  9.9871	  12.666	 175.495
 2940	 10.1200	 10.0621	  12.741	 176.395
 2955	 10.0800	 10.1383	  12.818	 177.295
 2970	 10.0600	 10.2133	  12.892	 178.195
 2985	 10.0200	 10.2883	  12.967	 179.095
 3000	  9.9800	 10.3633	  13.042	 179.995
 3015	  9.9400	 10.4383	  13.117	 180.895
 3030	  9.8800	 10.5146	  13.194	 181.795
 3045	  9.8400	 10.5896	  13.269	 182.695
 3060	  9.7800	 10.6646	  13.344	 183.595
 3075	  9.7200	 10.7396	  13.419	 184.495
 3090	  9.6600	 10.8146	  13.494	 185.395
 3105	  9.6000	 10.8908	  13.570	 186.295
 3120	  9.5400	 10.9658	  13.645	 187.195
 3135	  9.4600	 11.0396	  13.719	 188.095
 3150	  9.3800	 11.1158	  13.795	 188.995
 3165	  9.3000	 11.1908	  13.870	 189.895
 3180	  9.2200	 11.2658	  13.945	 190.795
 3195	  9.1200	 11.3421	  14.021	 191.695
 3210	  9.0400	 11.4171	  14.096	 192.595
 3225	  8.9400	 11.4921	  14.171	 193.495
 3240	  8.8200	 11.5671	  14.246	 194.395
 3255	  8.7200	 11.6421	  14.321	 195.295
 3270	  8.6000	 11.7158	  14.395	 196.195
 3285	  8.4800	 11.7921	  14.471	 197.095
 3300	  8.3400	 11.8671	  14.546	 197.995
 3315	  8.2000	 11.9421	  14.621	 198.895
 3330	  8.0200	 12.0183	  14.697	 199.795
 3345	  0.0400	 12.0958	  14.775	 200.695
 3360	  0.0400	 12.1721	  14.851	 201.595
 3375	  0.0400	 12.2471	  14.926	 202.495
 3390	  0.0400	 12.3221	  15.001	 203.395
 3394	  0.0400	 12.3421	  15.021	 203.635
ControlMode:	0
Rate:	  5.0000
(null)
4
step	1
0
5.000000
0.000000
1
1
0.500000
2
step	2
1
5.000000
0.000000
1
1
2.000000
3
step	3
5
2.000000
0.000000
1
0
30
4
step	4
8
0.000000
0.000000
0
0
0.000000
0
2