Folder: _LabMateriaisEM740--Unicamp/Experimento 4/Resultados Experimento 4-20210423/arquivos csv

Note: README.md
<h1 align='center'> Laboratório de Materiais - EM740 </h1>

<h2> Disciplina EM740 - Engenharia Mecânica 1s2021 Unicamp </h2>

Códigos utilizados para a análise de dados da disciplina EM740 do curso de Engenharia Mecânica da Unicamp (1s2021)

File: açoRev.csv
index;Load(kN);Defor(mm);Stroke(mm);Time(s)
0;0;0;0;0
9;0.06;0.512;0.035;0.535
18;0.06;0.514;0.079;1.075
27;0.06;0.514;0.124;1.615
36;0.06;0.514;0.169;2.155
45;0.06;0.516;0.214;2.695
54;0.06;0.516;0.259;3.235
63;0.06;0.516;0.304;3.775
72;0.06;0.516;0.349;4.315
81;0.06;0.516;0.394;4.855
90;0.06;0.516;0.439;5.395
99;0.08;0.516;0.482;5.935
108;0.08;0.516;0.527;6.475
117;0.2;0.516;0.572;7.015
126;0.5;0.514;0.618;7.555
135;1;0.514;0.662;8.095
144;1.62;0.514;0.707;8.635
153;2.3;0.514;0.751;9.175
162;2.86;0.516;0.796;9.715
171;2.88;0.516;0.841;10.255
180;3.34;0.516;0.886;10.795
189;3.62;0.518;0.931;11.335
198;3.76;0.52;0.976;11.875
207;4.06;0.52;1.02;12.415
216;4.42;0.522;1.066;12.955
225;4.82;0.524;1.11;13.495
234;5.26;0.526;1.155;14.035
243;5.68;0.528;1.2;14.575
252;6.12;0.53;1.245;15.115
261;6.56;0.532;1.29;15.655
270;7;0.534;1.335;16.195
279;7.44;0.536;1.38;16.735
288;7.88;0.54;1.425;17.275
297;8.34;0.542;1.47;17.815
306;8.8;0.544;1.515;18.355
315;9.24;0.546;1.56;18.895
324;9.7;0.548;1.605;19.435
333;10.14;0.552;1.65;19.975
342;10.6;0.554;1.695;20.515
351;11.06;0.556;1.74;21.055
360;11.52;0.558;1.785;21.595
369;12;0.56;1.83;22.135
378;12.46;0.564;1.875;22.675
387;12.94;0.566;1.92;23.215
396;13.42;0.568;1.965;23.755
405;13.9;0.57;2.01;24.295
414;14.38;0.572;2.055;24.835
423;14.86;0.576;2.1;25.375
432;15.34;0.578;2.145;25.915
441;15.84;0.58;2.189;26.455
450;16.32;0.584;2.232;26.995
459;16.8;0.586;2.277;27.535
468;17.32;0.588;2.322;28.075
477;17.82;0.592;2.367;28.615
486;18.32;0.594;2.412;29.155
495;18.82;0.596;2.457;29.695
504;19.34;0.598;2.501;30.235
513;19.86;0.602;2.546;30.775
522;20.36;0.604;2.591;31.315
531;20.9;0.608;2.636;31.855
540;21.42;0.61;2.681;32.395
549;21.96;0.612;2.726;32.935
558;22.48;0.616;2.771;33.475
567;23;0.618;2.816;34.015
576;23.54;0.62;2.861;34.555
585;24.06;0.624;2.906;35.095
594;24.6;0.626;2.951;35.635
603;25.12;0.628;2.996;36.175
612;25.66;0.632;3.041;36.715
621;26.2;0.634;3.086;37.255
630;26.74;0.638;3.13;37.795
639;27.28;0.64;3.175;38.335
648;27.84;0.644;3.22;38.875
657;28.38;0.646;3.265;39.415
666;28.92;0.65;3.31;39.955
675;29.48;0.652;3.355;40.495
684;30.02;0.654;3.4;41.035
693;30.56;0.658;3.444;41.575
702;31.12;0.66;3.489;42.115
711;31.62;0.664;3.531;42.655
720;32.2;0.666;3.576;43.195
729;32.76;0.67;3.621;43.735
738;33.32;0.672;3.666;44.275
747;33.88;0.674;3.711;44.815
756;34.44;0.678;3.756;45.355
765;35;0.682;3.801;45.895
774;35.56;0.684;3.846;46.435
783;36.12;0.688;3.89;46.975
792;36.68;0.69;3.936;47.515
801;37.24;0.692;3.981;48.055
810;37.8;0.696;4.025;48.595
819;38.36;0.698;4.07;49.135
828;38.94;0.702;4.115;49.675
837;39.5;0.704;4.16;50.215
846;40.08;0.708;4.205;50.755
855;40.64;0.71;4.25;51.295
864;41.22;0.714;4.295;51.835
873;41.78;0.716;4.34;52.375
882;42.36;0.72;4.385;52.915
891;42.92;0.722;4.43;53.455
900;43.5;0.726;4.475;53.995
909;44.08;0.73;4.519;54.535
918;44.64;0.732;4.564;55.075
927;45.22;0.736;4.609;55.615
936;45.78;0.74;4.654;56.155
945;46.34;0.744;4.699;56.695
954;46.26;0.742;4.744;57.235
963;47.22;0.748;4.789;57.775
972;47.76;0.754;4.834;58.315
981;48.26;0.758;4.879;58.855
990;48.76;0.766;4.924;59.395
999;49.18;0.776;4.969;59.935
1008;49.34;0.796;5.014;60.475
1017;49.16;0.832;5.059;61.015
1026;49.16;0.872;5.104;61.555
1035;49.14;0.912;5.15;62.095
1044;49.14;0.954;5.195;62.635
1053;49.14;0.994;5.24;63.175
1062;49.28;1.034;5.285;63.715
1071;49.36;1.072;5.33;64.255
1080;49.46;1.11;5.375;64.795
1089;49.54;1.148;5.42;65.335
1098;49.62;1.184;5.466;65.875
1107;49.7;1.2262;5.511;66.415
1116;49.78;1.2712;5.556;66.955
1125;49.86;1.3162;5.601;67.495
1134;49.94;1.3612;5.646;68.035
1143;50;1.4062;5.691;68.575
1152;49.48;1.4087;5.694;69.115
1161;49.3;1.4087;5.694;69.655
1170;49.16;1.4099;5.695;70.195
1179;49.08;1.4099;5.695;70.735
1188;49.02;1.4099;5.695;71.275
1197;48.98;1.4099;5.695;71.815
1206;48.92;1.4099;5.695;72.355
1215;48.9;1.4099;5.695;72.895
1224;48.86;1.4099;5.695;73.435
1233;48.82;1.4099;5.695;73.975
1242;48.8;1.4099;5.695;74.515
1251;48.78;1.4099;5.695;75.055
1260;48.76;1.4099;5.695;75.595
1269;48.74;1.4099;5.695;76.135
1278;48.72;1.4099;5.695;76.675
1287;48.7;1.4099;5.695;77.215
1296;48.68;1.4099;5.695;77.755
1305;48.66;1.4099;5.695;78.295
1314;48.66;1.4099;5.695;78.835
1323;48.64;1.4099;5.695;79.375
1332;48.62;1.4099;5.695;79.915
1341;48.62;1.4099;5.695;80.455
1350;49.8;1.4474;5.733;80.995
1359;50.22;1.4924;5.777;81.535
1368;50.3;1.5374;5.822;82.075
1377;50.36;1.5824;5.867;82.615
1386;50.4;1.6287;5.914;83.155
1395;50.46;1.6737;5.959;83.695
1404;50.52;1.7187;6.004;84.235
1413;50.58;1.7637;6.049;84.775
1422;50.64;1.8099;6.095;85.315
1431;50.7;1.8549;6.14;85.855
1440;50.78;1.8987;6.184;86.395
1449;50.86;1.9437;6.229;86.935
1458;50.92;1.9899;6.275;87.475
1467;50.98;2.0349;6.32;88.015
1476;51.06;2.0799;6.365;88.555
1485;51.14;2.1249;6.41;89.095
1494;51.2;2.1699;6.455;89.635
1503;51.28;2.2149;6.5;90.175
1512;51.34;2.2612;6.546;90.715
1521;51.4;2.3062;6.591;91.255
1530;51.48;2.3512;6.636;91.795
1539;51.54;2.3962;6.681;92.335
1548;51.6;2.4412;6.726;92.875
1557;51.66;2.4862;6.771;93.415
1566;51.72;2.5324;6.817;93.955
1575;51.78;2.5774;6.862;94.495
1584;51.84;2.6224;6.907;95.035
1593;51.9;2.6674;6.952;95.575
1602;51.96;2.7124;6.997;96.115
1611;52;2.7574;7.043;96.655
1620;52.06;2.8024;7.087;97.195
1629;52.12;2.8474;7.132;97.735
1638;52.16;2.8924;7.177;98.275
1647;52.2;2.9374;7.222;98.815
1656;52.24;2.9824;7.267;99.355
1665;52.3;3.0287;7.314;99.895
1674;52.34;3.0737;7.359;100.435
1683;52.38;3.1174;7.402;100.975
1692;52.42;3.1624;7.447;101.515
1701;52.44;3.2087;7.494;102.055
1710;52.48;3.2537;7.539;102.595
1719;52.52;3.2987;7.584;103.135
1728;52.54;3.3437;7.629;103.675
1737;52.58;3.3887;7.674;104.215
1746;52.6;3.4337;7.719;104.755
1755;52.62;3.4787;7.764;105.295
1764;52.66;3.5237;7.809;105.835
1773;52.68;3.5699;7.855;106.375
1782;52.68;3.6149;7.9;106.915
1791;52.7;3.6599;7.945;107.455
1800;52.72;3.7049;7.99;107.995
1809;52.74;3.7499;8.035;108.535
1818;52.74;3.7949;8.08;109.075
1827;52.76;3.8399;8.125;109.615
1836;52.76;3.8849;8.17;110.155
1845;52.78;3.9312;8.216;110.695
1854;52.76;3.9749;8.26;111.235
1863;52.78;4.0212;8.306;111.775
1872;52.76;4.0649;8.35;112.315
1881;52.76;4.1112;8.396;112.855
1890;52.76;4.1562;8.441;113.395
1899;52.76;4.2012;8.486;113.935
1908;52.74;4.2462;8.531;114.475
1917;52.72;4.2912;8.576;115.015
1926;52.7;4.3362;8.621;115.555
1935;52.68;4.3812;8.666;116.095
1944;52.66;4.4262;8.711;116.635
1953;52.62;4.4724;8.757;117.175
1962;52.58;4.5174;8.802;117.715
1971;52.54;4.5624;8.847;118.255
1980;52.46;4.6074;8.892;118.795
1989;52.4;4.6524;8.938;119.335
1998;52.32;4.6974;8.983;119.875
2007;52.22;4.7424;9.028;120.415
2016;52.12;4.7887;9.074;120.955
2025;51.98;4.8337;9.119;121.495
2034;51.82;4.8799;9.165;122.035
2043;51.8;4.9249;9.21;122.575
2052;51.62;4.9699;9.255;123.115
2061;51.46;5.0149;9.3;123.655
2070;51.3;5.0612;9.346;124.195
2079;51.12;5.1049;9.39;124.735
2088;50.94;5.1499;9.435;125.275
2097;50.74;5.1949;9.48;125.815
2106;50.56;5.2412;9.526;126.355
2115;50.36;5.2862;9.571;126.895
2124;50.18;5.3312;9.616;127.435
2133;49.98;5.3762;9.661;127.975
2142;49.78;5.4212;9.706;128.515
2151;49.58;5.4662;9.751;129.055
2160;49.36;5.5112;9.796;129.595
2169;49.16;5.5562;9.841;130.135
2178;48.94;5.6024;9.887;130.675
2187;48.72;5.6462;9.931;131.215
2196;48.5;5.6924;9.977;131.755
2205;48.28;5.7374;10.023;132.295
2214;48.06;5.7824;10.068;132.835
2223;47.82;5.8274;10.113;133.375
2232;47.6;5.8737;10.159;133.915
2241;47.36;5.9187;10.204;134.455
2250;47.12;5.9637;10.249;134.995
2259;46.88;6.0087;10.294;135.535
2268;46.64;6.0537;10.339;136.075
2277;46.38;6.0987;10.384;136.615
2286;46.14;6.1437;10.429;137.155
2295;45.88;6.1899;10.475;137.695
2304;45.62;6.2349;10.52;138.235
2313;45.34;6.2799;10.565;138.775
2322;45.1;6.3249;10.61;139.315
2331;44.82;6.3712;10.656;139.855
2340;44.54;6.4162;10.701;140.395
2349;44.26;6.4612;10.746;140.935
2358;43.98;6.5062;10.791;141.475
2367;43.68;6.5512;10.836;142.015
2376;43.4;6.5974;10.882;142.555
2385;43.1;6.6424;10.927;143.095
2394;42.78;6.6874;10.972;143.635
2403;42.46;6.7324;11.017;144.175
2412;42.14;6.7787;11.064;144.715
2421;41.82;6.8237;11.109;145.255
2430;41.5;6.8674;11.153;145.795
2439;41.16;6.9124;11.197;146.335
2448;40.82;6.9574;11.242;146.875
2457;40.48;7.0024;11.287;147.415
2466;40.12;7.0487;11.334;147.955
2475;39.76;7.0937;11.379;148.495
2484;39.38;7.1387;11.424;149.035
2493;39;7.1837;11.469;149.575
2502;38.62;7.2287;11.514;150.115
2511;38.22;7.2737;11.559;150.655
2520;37.82;7.3199;11.605;151.195
2529;37.4;7.3649;11.65;151.735
2538;36.98;7.4099;11.695;152.275
2547;36.54;7.4549;11.74;152.815
2556;36.1;7.5012;11.786;153.355
2565;35.64;7.5449;11.83;153.895
2574;35.18;7.5912;11.876;154.435
2583;34.7;7.6362;11.921;154.975
2592;34.2;7.6812;11.966;155.515
2601;0;7.7262;12.011;156.055
2610;0.02;7.7712;12.056;156.595
2619;0.02;7.8162;12.101;157.135
2628;0.02;7.8599;12.145;157.675
2637;0.02;7.9049;12.19;158.215
2646;0;7.9499;12.235;158.755

File: açoTemp.csv
index;Load(kN);Defor(mm);Stroke(mm);Time(s)
0;0;0;0;0
6;0;0.0137;0.014;0.355
12;0.04;0.0437;0.044;0.715
18;0.16;0.0737;0.074;1.075
24;0.16;0.1037;0.104;1.435
30;0.18;0.1337;0.134;1.795
36;0.58;0.1637;0.164;2.155
42;0.88;0.1937;0.194;2.515
48;1.04;0.2237;0.224;2.875
54;1.1;0.2537;0.254;3.235
60;1.14;0.2837;0.284;3.595
66;1.18;0.3137;0.314;3.955
72;1.22;0.3438;0.344;4.315
78;1.26;0.3725;0.373;4.675
84;1.3;0.4025;0.403;5.035
90;1.34;0.4338;0.434;5.395
96;1.38;0.4625;0.462;5.755
102;1.42;0.4925;0.492;6.115
108;1.44;0.5225;0.522;6.475
114;1.46;0.5525;0.553;6.835
120;1.5;0.5825;0.582;7.195
126;1.52;0.6125;0.613;7.555
132;1.56;0.6425;0.642;7.915
138;1.58;0.6725;0.673;8.275
144;1.6;0.7025;0.702;8.635
150;1.64;0.7325;0.732;8.995
156;1.66;0.7612;0.761;9.355
162;1.68;0.7912;0.791;9.715
168;1.72;0.8212;0.821;10.075
174;1.74;0.8512;0.851;10.435
180;1.78;0.8825;0.882;10.795
186;1.8;0.9112;0.911;11.155
192;1.84;0.9412;0.941;11.515
198;1.86;0.9712;0.971;11.875
204;1.9;1.0013;1.001;12.235
210;1.94;1.0312;1.031;12.595
216;1.98;1.0612;1.061;12.955
222;2.02;1.0912;1.091;13.315
228;2.06;1.1213;1.121;13.675
234;2.1;1.1513;1.151;14.035
240;2.14;1.1812;1.181;14.395
246;2.18;1.2112;1.211;14.755
252;2.22;1.2412;1.241;15.115
258;2.26;1.2725;1.272;15.475
264;2.3;1.3025;1.303;15.835
270;2.34;1.3325;1.332;16.195
276;2.38;1.3612;1.361;16.555
282;2.42;1.3925;1.392;16.915
288;2.44;1.4225;1.423;17.275
294;2.5;1.4525;1.452;17.635
300;2.54;1.4825;1.482;17.995
306;2.58;1.5125;1.512;18.355
312;2.62;1.5425;1.543;18.715
318;2.66;1.5725;1.572;19.075
324;2.72;1.6025;1.602;19.435
330;2.76;1.6325;1.632;19.795
336;2.8;1.6625;1.662;20.155
342;2.86;1.6925;1.692;20.515
348;2.9;1.7225;1.722;20.875
354;2.96;1.7525;1.752;21.235
360;3.02;1.7825;1.782;21.595
366;3.08;1.8125;1.812;21.955
372;3.16;1.8438;1.844;22.315
378;3.24;1.8737;1.874;22.675
384;3.32;1.9037;1.904;23.035
390;3.4;1.9337;1.934;23.395
396;3.48;1.9638;1.964;23.755
402;3.56;1.9937;1.994;24.115
408;3.66;2.0238;2.024;24.475
414;3.74;2.0538;2.054;24.835
420;3.84;2.0838;2.084;25.195
426;3.94;2.115;2.115;25.555
432;4.02;2.145;2.145;25.915
438;4.12;2.175;2.175;26.275
444;4.24;2.205;2.205;26.635
450;4.34;2.235;2.235;26.995
456;4.46;2.265;2.265;27.355
462;4.56;2.295;2.295;27.715
468;4.68;2.325;2.325;28.075
474;4.8;2.355;2.355;28.435
480;4.92;2.385;2.385;28.795
486;5.04;2.415;2.415;29.155
492;5.16;2.445;2.445;29.515
498;5.28;2.475;2.475;29.875
504;5.42;2.505;2.505;30.235
510;5.54;2.535;2.535;30.595
516;5.68;2.565;2.565;30.955
522;5.8;2.5963;2.596;31.315
528;5.94;2.6263;2.626;31.675
534;6.08;2.6562;2.656;32.035
540;6.22;2.6862;2.686;32.395
546;6.36;2.7162;2.716;32.755
552;6.5;2.7462;2.746;33.115
558;6.64;2.7762;2.776;33.475
564;6.78;2.8062;2.806;33.835
570;6.94;2.8362;2.836;34.195
576;7.08;2.8663;2.866;34.555
582;7.24;2.8963;2.896;34.915
588;7.4;2.9262;2.926;35.275
594;7.56;2.9562;2.956;35.635
600;7.72;2.9862;2.986;35.995
606;7.9;3.0162;3.016;36.355
612;8.06;3.0462;3.046;36.715
618;8.18;3.0762;3.076;37.075
624;8.36;3.1063;3.106;37.435
630;8.56;3.1363;3.136;37.795
636;8.74;3.1662;3.166;38.155
642;8.92;3.1975;3.197;38.515
648;9.12;3.2275;3.227;38.875
654;9.32;3.2575;3.257;39.235
660;9.52;3.2875;3.287;39.595
666;9.72;3.3175;3.317;39.955
672;9.94;3.3475;3.347;40.315
678;10.14;3.3775;3.377;40.675
684;10.34;3.4075;3.408;41.035
690;10.56;3.4375;3.438;41.395
696;10.78;3.4675;3.467;41.755
702;10.96;3.495;3.495;42.115
708;11.18;3.525;3.525;42.475
714;11.4;3.555;3.555;42.835
720;11.62;3.585;3.585;43.195
726;11.84;3.615;3.615;43.555
732;12.06;3.645;3.645;43.915
738;12.28;3.675;3.675;44.275
744;12.52;3.705;3.705;44.635
750;12.74;3.735;3.735;44.995
756;12.96;3.765;3.765;45.355
762;13.2;3.795;3.795;45.715
768;13.42;3.825;3.825;46.075
774;13.66;3.855;3.855;46.435
780;13.88;3.885;3.885;46.795
786;14.12;3.915;3.915;47.155
792;14.36;3.945;3.945;47.515
798;14.6;3.975;3.975;47.875
804;14.84;4.005;4.005;48.235
810;15.08;4.0363;4.036;48.595
816;15.32;4.0662;4.066;48.955
822;15.56;4.0963;4.096;49.315
828;15.8;4.1262;4.126;49.675
834;16.04;4.1562;4.156;50.035
840;16.28;4.1862;4.186;50.395
846;16.52;4.2162;4.216;50.755
852;16.78;4.2462;4.246;51.115
858;17.02;4.2762;4.276;51.475
864;17.28;4.3063;4.306;51.835
870;17.52;4.3362;4.336;52.195
876;17.76;4.3663;4.366;52.555
882;18.02;4.3962;4.396;52.915
888;18.28;4.4262;4.426;53.275
894;18.52;4.4562;4.456;53.635
900;18.78;4.4875;4.487;53.995
906;19.04;4.5175;4.517;54.355
912;19.28;4.5475;4.548;54.715
918;19.54;4.5775;4.577;55.075
924;19.8;4.6075;4.608;55.435
930;20.06;4.6375;4.637;55.795
936;20.3;4.6675;4.668;56.155
942;20.58;4.6975;4.697;56.515
948;20.84;4.7275;4.727;56.875
954;21.1;4.7575;4.757;57.235
960;21.36;4.7875;4.787;57.595
966;21.62;4.8175;4.818;57.955
972;21.88;4.8475;4.847;58.315
978;22.14;4.8775;4.878;58.675
984;22.4;4.9075;4.907;59.035
990;22.68;4.9375;4.938;59.395
996;22.94;4.9675;4.967;59.755
1002;23.2;4.9975;4.997;60.115
1008;23.48;5.0275;5.027;60.475
1014;23.74;5.0575;5.057;60.835
1020;24;5.0875;5.088;61.195
1026;24.28;5.1175;5.117;61.555
1032;24.54;5.1487;5.149;61.915
1038;24.82;5.1788;5.179;62.275
1044;25.08;5.2087;5.209;62.635
1050;25.34;5.2387;5.239;62.995
1056;25.62;5.2687;5.269;63.355
1062;25.9;5.2987;5.299;63.715
1068;26.16;5.3287;5.329;64.075
1074;26.44;5.3587;5.359;64.435
1080;26.7;5.3888;5.389;64.795
1086;26.98;5.4187;5.419;65.155
1092;27.26;5.4488;5.449;65.515
1098;27.52;5.4787;5.479;65.875
1104;27.8;5.5087;5.509;66.235
1110;28.08;5.5387;5.539;66.595
1116;28.36;5.5687;5.569;66.955
1122;28.64;5.5987;5.599;67.315
1128;28.92;5.6287;5.629;67.675
1134;29.18;5.6588;5.659;68.035
1140;29.46;5.6887;5.689;68.395
1146;29.74;5.7188;5.719;68.755
1152;30.02;5.7487;5.749;69.115
1158;30.3;5.7787;5.779;69.475
1164;30.58;5.8087;5.809;69.835
1170;30.86;5.8387;5.839;70.195
1176;31.14;5.8688;5.869;70.555
1182;31.42;5.8987;5.899;70.915
1188;31.7;5.9288;5.929;71.275
1194;31.98;5.9587;5.959;71.635
1200;32.26;5.9887;5.989;71.995
1206;32.54;6.0187;6.019;72.355
1212;32.82;6.0487;6.049;72.715
1218;33.1;6.0787;6.079;73.075
1224;33.38;6.1087;6.109;73.435
1230;33.66;6.1388;6.139;73.795
1236;33.94;6.1687;6.169;74.155
1242;34.22;6.1988;6.199;74.515
1248;34.5;6.2275;6.227;74.875
1254;34.8;6.2575;6.257;75.235
1260;35.08;6.2875;6.287;75.595
1266;35.34;6.3175;6.317;75.955
1272;35.62;6.3475;6.347;76.315
1278;35.92;6.3775;6.378;76.675
1284;36.2;6.4075;6.407;77.035
1290;36.48;6.4375;6.438;77.395
1296;36.76;6.4675;6.467;77.755
1302;37.04;6.4975;6.497;78.115
1308;37.32;6.5275;6.527;78.475
1314;37.6;6.5575;6.557;78.835
1320;37.9;6.5875;6.587;79.195
1326;38.18;6.6175;6.617;79.555
1332;38.46;6.6475;6.648;79.915
1338;38.74;6.6775;6.677;80.275
1344;39.02;6.7075;6.707;80.635
1350;39.32;6.7375;6.737;80.995
1356;39.6;6.7675;6.767;81.355
1362;39.88;6.7975;6.797;81.715
1368;40.18;6.8275;6.827;82.075
1374;40.46;6.8575;6.858;82.435
1380;40.74;6.8875;6.887;82.795
1386;41.02;6.9162;6.916;83.155
1392;41.3;6.9462;6.946;83.515
1398;41.58;6.9762;6.976;83.875
1404;41.88;7.0062;7.006;84.235
1410;42.16;7.0362;7.036;84.595
1416;42.44;7.0662;7.066;84.955
1422;42.74;7.0963;7.096;85.315
1428;43.02;7.1262;7.126;85.675
1434;43.3;7.1562;7.156;86.035
1440;43.6;7.1862;7.186;86.395
1446;43.88;7.2162;7.216;86.755
1452;44.18;7.2462;7.246;87.115
1458;44.46;7.2762;7.276;87.475
1464;44.76;7.3062;7.306;87.835
1470;45.04;7.3362;7.336;88.195
1476;45.32;7.3663;7.366;88.555
1482;45.6;7.3962;7.396;88.915
1488;45.88;7.4262;7.426;89.275
1494;46.18;7.4562;7.456;89.635
1500;46.46;7.4862;7.486;89.995
1506;46.76;7.5162;7.516;90.355
1512;47.04;7.5462;7.546;90.715
1518;47.34;7.5762;7.576;91.075
1524;47.62;7.6062;7.606;91.435
1530;47.9;7.6363;7.636;91.795
1536;48.2;7.6662;7.666;92.155
1542;48.48;7.6962;7.696;92.515
1548;48.76;7.7262;7.726;92.875
1554;33.6;7.785;7.785;93.235
1560;0.1;7.8038;7.804;93.595
1566;0.1;7.8337;7.834;93.955
1572;0.1;7.8637;7.864;94.315
1578;0.1;7.8925;7.892;94.675
1584;0.1;7.9225;7.922;95.035
1590;0.1;7.9537;7.954;95.395
1596;0.1;7.9825;7.982;95.755
1602;0.1;8.0138;8.014;96.115
1608;0.1;8.0437;8.044;96.475
1614;0.1;8.0725;8.073;96.835
1620;0.1;8.1025;8.102;97.195
1626;0.1;8.1325;8.132;97.555
1632;0.1;8.1625;8.162;97.915
1638;0.1;8.1925;8.193;98.275
1640;0.1;8.2025;8.202;98.395